aX,aY,aZ,gX,gY,gZ
0.185,0.581,1.563,-3.113,-13.000,3.113
0.162,0.789,1.603,-4.822,-19.043,0.427
0.117,1.020,1.608,-9.399,-21.362,-1.221
0.103,1.275,1.561,-14.771,-18.799,-2.747
0.106,1.495,1.501,-17.822,-13.306,-5.859
0.112,1.721,1.432,-19.165,-10.986,-9.827
0.080,1.892,1.336,-19.348,-14.343,-11.780
0.006,1.944,1.237,-19.104,-20.996,-12.512
-0.058,1.946,1.135,-17.456,-28.015,-17.151
-0.116,1.894,1.042,-10.742,-35.522,-28.992
-0.143,1.835,0.970,0.366,-44.678,-46.143
-0.136,1.767,0.940,14.160,-56.519,-64.392
-0.064,1.657,0.948,27.283,-72.388,-76.660
-0.075,1.500,0.902,35.034,-91.980,-81.848
-0.153,1.264,0.824,38.025,-102.722,-84.534
-0.185,1.021,0.773,38.635,-96.497,-85.693
-0.208,0.817,0.710,33.691,-80.017,-80.017
-0.237,0.575,0.603,16.602,-60.730,-64.026
-0.277,0.320,0.454,-9.827,-41.016,-39.673
-0.351,0.049,0.252,-35.645,-25.085,-14.099
-0.414,-0.262,0.016,-55.115,-11.536,6.714
-0.496,-0.699,-0.170,-62.805,2.319,20.325
-0.520,-1.175,-0.316,-58.228,20.691,27.344
-0.496,-1.646,-0.434,-34.546,41.077,33.569
-0.533,-2.190,-0.382,0.793,60.425,43.274
-0.705,-2.652,-0.226,51.086,74.219,39.917
-0.667,-2.819,0.150,123.352,72.754,15.869
-0.536,-2.698,0.580,189.697,36.316,-18.982
-0.332,-2.517,0.953,222.778,-30.945,-58.472
-0.201,-2.236,1.047,219.727,-101.685,-96.924
0.033,-2.048,1.062,200.378,-143.433,-115.967
0.104,-1.786,0.942,173.157,-148.743,-115.723
0.242,-1.544,0.912,141.846,-107.544,-101.318
0.351,-1.416,0.895,118.469,-46.265,-81.665
0.330,-1.330,0.855,93.811,2.502,-62.134
0.334,-1.227,0.873,70.557,36.560,-48.584
0.302,-1.126,0.860,57.251,53.772,-44.617
0.357,-1.067,0.887,47.729,52.124,-42.419
0.378,-0.997,0.913,39.307,35.828,-41.687
0.371,-0.922,0.932,30.945,12.817,-39.612
0.357,-0.838,0.970,23.987,-6.165,-36.926
0.305,-0.827,1.007,19.958,-18.066,-32.715
0.261,-0.799,1.032,15.808,-23.682,-26.550
0.218,-0.750,1.080,8.362,-20.325,-20.691
0.175,-0.717,1.014,-1.770,-11.047,-14.587
0.120,-0.688,0.967,-12.268,1.160,-7.385
0.055,-0.617,0.922,-21.912,17.639,-1.526
-0.012,-0.568,0.839,-31.860,27.710,7.080
-0.036,-0.542,0.798,-38.757,35.339,14.771
-0.084,-0.523,0.792,-36.438,39.917,17.517
-0.110,-0.507,0.808,-30.029,38.330,17.517
-0.130,-0.464,0.813,-24.658,28.931,16.174
-0.151,-0.419,0.795,-22.644,16.113,14.771
-0.138,-0.379,0.778,-23.132,6.042,13.733
-0.119,-0.333,0.771,-22.156,0.305,11.475
-0.106,-0.329,0.783,-19.897,-2.075,9.277
-0.108,-0.353,0.803,-18.311,-3.113,7.385
-0.110,-0.384,0.826,-17.273,-4.761,5.981
-0.118,-0.388,0.848,-15.137,-5.432,4.761
-0.141,-0.380,0.873,-11.597,-4.944,4.700
-0.150,-0.381,0.915,-7.019,-2.869,4.211
-0.158,-0.385,0.967,-2.930,-1.587,2.991
-0.139,-0.360,1.002,-0.977,-4.333,1.282
-0.112,-0.328,1.015,-3.479,-11.780,0.427
-0.098,-0.311,1.001,-10.071,-20.630,-0.305
-0.101,-0.311,0.976,-16.113,-26.001,-0.732
-0.102,-0.303,0.958,-18.494,-26.123,-1.343
-0.103,-0.301,0.944,-17.090,-22.949,-1.770
-0.109,-0.306,0.946,-14.526,-18.433,-2.502
-0.113,-0.317,0.947,-11.353,-14.038,-3.784
-0.111,-0.328,0.950,-7.874,-10.498,-5.432
-0.109,-0.333,0.948,-4.883,-7.324,-7.019
-0.107,-0.343,0.944,-2.686,-3.662,-8.057
-0.091,-0.356,0.945,-0.610,0.732,-8.728
-0.071,-0.364,0.955,1.648,5.127,-9.521
-0.049,-0.354,0.971,3.113,7.202,-8.301
-0.021,-0.340,0.979,2.625,5.127,-5.432
-0.006,-0.336,0.979,0.366,-1.038,-3.601
-0.002,-0.332,0.975,-3.174,-8.484,-3.235
-0.009,-0.334,0.970,-5.920,-15.381,-2.930
-0.030,-0.339,0.962,-7.507,-19.592,-1.892
-0.053,-0.322,0.945,-8.301,-20.203,-0.916
-0.077,-0.309,0.940,-7.507,-16.418,-0.549
-0.103,-0.312,0.946,-5.310,-11.230,-0.793
-0.109,-0.311,0.946,-3.418,-6.836,-1.465
-0.113,-0.314,0.951,-1.770,-4.456,-2.258
-0.119,-0.314,0.955,-0.549,-4.639,-2.686
-0.112,-0.310,0.961,0.183,-6.042,-2.991
-0.121,-0.306,0.962,-0.183,-7.629,-2.563
-0.120,-0.310,0.968,-2.136,-8.972,-1.038
-0.121,-0.303,0.971,-4.700,-9.521,1.587
-0.133,-0.296,0.962,-6.897,-10.437,4.333
-0.148,-0.291,0.946,-8.057,-10.742,5.066
-0.160,-0.291,0.935,-7.385,-9.399,3.601
-0.172,-0.293,0.930,-5.249,-7.202,1.709
-0.175,-0.288,0.923,-2.686,-4.150,0.061
-0.159,-0.281,0.919,-0.488,-0.244,-1.343
-0.144,-0.286,0.911,1.160,4.028,-2.136
-0.128,-0.300,0.905,1.343,7.874,-2.625
-0.103,-0.304,0.897,1.160,11.108,-2.991
-0.093,-0.304,0.900,1.343,13.489,-3.357
-0.088,-0.305,0.901,1.587,14.526,-3.296
-0.070,-0.301,0.900,0.488,14.893,-3.418
-0.066,-0.310,0.905,0.183,15.198,-3.784
-0.056,-0.318,0.913,0.122,14.587,-3.540
-0.038,-0.310,0.920,-0.732,12.451,-2.319
-0.045,-0.306,0.924,-2.136,8.362,-0.061
-0.049,-0.320,0.938,-4.028,4.028,1.892
-0.064,-0.313,0.921,-6.104,-0.671,2.747
-0.059,-0.323,0.909,-7.935,-4.639,3.967
-0.068,-0.334,0.898,-7.080,-7.141,5.127
-0.082,-0.316,0.904,-4.578,-7.385,5.737
-0.085,-0.302,0.909,-3.113,-5.676,8.057
-0.094,-0.305,0.910,-3.906,-3.235,11.658
-0.136,-0.308,0.904,-6.226,-0.122,14.282
-0.159,-0.300,0.881,-7.263,4.822,15.015
-0.160,-0.314,0.879,-7.019,10.437,14.954
-0.159,-0.325,0.879,-5.493,14.526,14.099
-0.161,-0.325,0.882,-3.235,15.503,12.634

-0.090,0.937,1.214,35.645,234.009,47.424
-0.084,1.027,1.303,40.955,253.601,53.040
-0.041,1.104,1.389,46.021,265.503,55.725
0.013,1.156,1.464,48.828,267.090,56.030
0.057,1.234,1.517,45.837,261.292,54.871
0.087,1.326,1.551,38.574,252.563,55.725
0.101,1.413,1.544,27.588,243.408,59.265
0.104,1.475,1.507,14.832,239.075,62.622
0.110,1.507,1.443,2.747,241.882,64.331
0.099,1.505,1.363,-8.667,248.535,62.439
0.063,1.486,1.276,-17.639,254.700,55.237
-0.005,1.412,1.182,-23.315,256.775,43.762
-0.077,1.288,1.100,-26.367,253.296,26.367
-0.147,1.122,1.032,-29.724,244.873,2.014
-0.197,0.919,0.937,-35.583,230.530,-26.855
-0.211,0.675,0.801,-46.082,209.656,-58.044
-0.194,0.358,0.627,-52.856,185.486,-92.346
-0.064,0.040,0.449,-48.706,166.382,-125.549
0.131,-0.299,0.288,-39.124,161.499,-146.240
0.380,-0.653,0.168,-26.917,170.654,-146.240
0.710,-0.967,0.043,-16.602,187.500,-122.925
0.911,-1.194,-0.215,-5.798,209.167,-88.928
0.980,-1.431,-0.278,15.076,237.793,-49.683
0.951,-1.581,-0.239,52.612,266.235,-10.071
0.899,-1.804,-0.099,81.970,266.052,16.296
0.826,-1.766,0.026,86.975,244.202,11.658
0.802,-1.797,0.105,77.148,204.041,-13.977
0.868,-1.775,0.105,48.828,155.579,-54.138
0.912,-1.771,0.079,5.371,112.244,-99.060
1.028,-1.776,-0.087,-40.955,79.163,-128.418
1.097,-1.691,-0.289,-76.416,58.289,-142.883
1.225,-1.538,-0.436,-90.393,53.528,-150.696
1.346,-1.391,-0.492,-82.153,60.303,-149.353
1.440,-1.221,-0.459,-65.430,69.580,-131.287
1.414,-1.023,-0.399,-50.110,77.698,-99.792
1.323,-0.835,-0.365,-40.588,88.379,-65.796
1.223,-0.736,-0.357,-37.964,103.271,-41.443
1.102,-0.631,-0.365,-38.635,116.333,-30.518
1.027,-0.611,-0.366,-38.635,121.887,-24.292
0.985,-0.590,-0.347,-38.086,116.577,-22.583
0.987,-0.566,-0.309,-36.926,95.947,-23.743
0.991,-0.532,-0.302,-35.034,62.988,-21.667
0.939,-0.495,-0.287,-28.198,25.574,-14.099
0.903,-0.442,-0.237,-14.404,-3.784,-4.089
0.855,-0.422,-0.123,2.563,-20.630,2.014
0.739,-0.425,-0.015,14.709,-26.489,3.662
0.781,-0.401,0.087,20.752,-20.569,5.249
0.794,-0.448,0.192,23.437,-8.484,7.202
0.747,-0.393,0.242,18.982,-2.808,3.235
0.764,-0.361,0.248,11.536,1.038,3.174
0.827,-0.380,0.214,4.517,8.118,7.080
0.871,-0.366,0.207,0.000,17.456,6.287
0.917,-0.348,0.177,-3.296,23.621,5.005
0.945,-0.313,0.147,-5.981,25.940,6.165
0.971,-0.306,0.102,-6.409,25.757,11.353
0.997,-0.303,0.085,-3.784,26.794,17.212
0.992,-0.297,0.052,-0.122,28.870,20.142
0.990,-0.285,0.038,1.770,30.334,21.790
0.985,-0.306,0.032,3.906,29.297,22.766
0.965,-0.309,0.041,6.775,26.184,21.301
0.948,-0.293,0.052,9.583,22.034,18.127
0.935,-0.276,0.068,11.475,19.653,15.259
0.932,-0.260,0.078,11.414,18.799,13.672
0.942,-0.246,0.094,9.338,19.348,12.756
0.969,-0.248,0.109,6.226,19.836,13.123
0.984,-0.265,0.108,1.953,17.883,15.564
0.985,-0.271,0.094,-1.587,14.038,16.846
0.988,-0.262,0.076,-3.723,10.620,15.869
0.998,-0.258,0.057,-5.066,8.301,14.404
1.006,-0.242,0.031,-6.592,5.554,13.733
1.001,-0.215,0.001,-7.507,3.235,13.428
0.986,-0.206,-0.024,-6.714,1.709,13.123
0.968,-0.207,-0.035,-3.540,1.343,12.451
0.962,-0.206,-0.035,1.343,1.953,11.108
0.954,-0.206,-0.022,5.371,3.052,8.911
0.954,-0.195,-0.009,7.202,3.540,6.470
0.943,-0.195,0.003,7.751,2.380,4.822
0.950,-0.210,0.017,8.118,0.488,4.089
0.959,-0.214,0.032,8.789,-1.587,2.930
0.977,-0.231,0.046,7.935,-4.395,1.892
0.990,-0.231,0.053,6.165,-7.568,1.282
1.001,-0.220,0.047,4.395,-10.681,1.465
1.000,-0.229,0.042,3.113,-12.451,2.014
0.996,-0.234,0.047,2.747,-11.902,1.404
0.993,-0.235,0.061,2.808,-11.414,0.061
0.991,-0.240,0.070,2.014,-12.024,-0.671
0.992,-0.246,0.060,-0.977,-13.855,-0.305
0.981,-0.253,0.053,-3.662,-14.587,-0.122
0.977,-0.250,0.047,-4.333,-13.550,-0.549
0.982,-0.237,0.030,-4.028,-12.512,-1.282
0.989,-0.241,0.030,-2.258,-10.925,-2.625
1.004,-0.252,0.039,1.648,-8.240,-3.235
1.015,-0.259,0.049,4.456,-3.662,-2.441
1.022,-0.259,0.070,5.981,3.357,0.000
1.024,-0.251,0.093,6.653,10.193,2.930
1.022,-0.246,0.107,5.676,14.221,5.432
1.022,-0.251,0.108,3.113,14.404,6.592
1.017,-0.256,0.101,0.427,11.353,6.409
1.007,-0.258,0.087,-1.526,7.446,6.226
0.989,-0.251,0.082,-2.136,4.272,6.042
0.964,-0.240,0.084,-2.502,2.869,6.042
0.953,-0.234,0.081,-3.601,2.136,5.676
0.942,-0.228,0.062,-5.432,0.854,4.700
0.939,-0.223,0.042,-6.348,0.183,3.113
0.947,-0.225,0.034,-6.287,1.221,2.014
0.958,-0.232,0.027,-6.104,0.854,1.465
0.962,-0.240,0.024,-5.981,-1.038,1.221
0.958,-0.243,0.029,-5.554,-3.662,1.099
0.955,-0.242,0.034,-4.272,-6.775,0.732
0.959,-0.240,0.035,-3.967,-9.216,0.183
0.969,-0.245,0.027,-5.066,-10.742,0.244
0.974,-0.254,0.015,-6.287,-10.864,0.854
0.991,-0.258,0.005,-6.287,-9.521,0.977
1.001,-0.263,0.001,-5.920,-8.240,1.099
1.011,-0.261,0.001,-4.883,-7.629,1.648
1.003,-0.266,0.000,-2.502,-6.348,3.174
1.002,-0.268,0.005,-0.244,-2.930,5.493
0.994,-0.262,0.010,1.709,2.014,8.362
0.971,-0.262,0.025,2.502,7.202,11.047

0.995,1.093,0.247,5.432,-99.609,-26.855
1.013,1.333,0.255,9.766,-131.531,-34.607
1.035,1.562,0.235,11.169,-177.124,-49.377
1.004,1.764,0.200,9.094,-231.445,-68.970
0.990,1.910,0.179,7.751,-286.011,-90.027
0.974,2.062,0.140,13.062,-339.111,-111.084
0.883,2.228,0.151,27.588,-386.353,-126.526
0.786,2.337,0.200,47.485,-429.016,-131.714
0.642,2.430,0.263,66.956,-466.431,-130.615
0.492,2.448,0.341,79.407,-494.324,-128.967
0.405,2.436,0.349,86.792,-512.512,-133.362
0.239,2.346,0.388,96.985,-517.517,-143.616
0.080,2.171,0.447,110.840,-506.226,-153.442
-0.066,1.871,0.530,124.817,-481.262,-158.081
-0.178,1.587,0.645,138.306,-449.707,-157.715
-0.266,1.323,0.734,145.874,-415.344,-151.794
-0.402,1.034,0.761,139.648,-382.996,-147.400
-0.526,0.717,0.736,116.943,-354.431,-149.231
-0.648,0.383,0.607,85.754,-333.801,-157.715
-0.750,-0.002,0.453,54.199,-326.843,-170.593
-0.711,-0.452,0.358,24.292,-337.891,-180.603
-0.728,-1.021,0.194,-1.099,-365.295,-174.683
-0.665,-1.635,0.132,-11.658,-396.606,-151.306
-0.567,-1.989,0.401,-1.099,-411.438,-106.384
-0.679,-2.089,0.409,18.494,-399.170,-34.363
-1.037,-2.315,0.386,26.550,-348.633,41.565
-1.239,-2.503,0.529,23.315,-256.775,94.421
-1.346,-2.591,0.661,31.006,-161.316,114.502
-1.390,-2.495,0.804,50.964,-99.915,99.365
-1.333,-2.139,0.831,61.523,-72.571,54.504
-1.073,-1.856,0.759,57.800,-71.106,9.460
-0.837,-1.717,0.789,50.537,-94.055,-21.240
-0.650,-1.528,0.773,47.119,-131.042,-43.213
-0.544,-1.320,0.596,46.204,-159.119,-56.274
-0.365,-1.098,0.598,43.030,-156.982,-58.960
-0.249,-0.979,0.479,38.818,-135.315,-51.514
-0.246,-0.893,0.467,29.724,-105.591,-39.795
-0.297,-0.837,0.508,20.081,-72.632,-24.048
-0.393,-0.857,0.519,14.526,-49.683,-10.437
-0.445,-0.851,0.532,6.714,-40.710,-2.808
-0.553,-0.792,0.525,0.549,-47.668,1.526
-0.665,-0.774,0.519,3.357,-62.866,2.563
-0.748,-0.646,0.540,13.855,-73.608,-1.953
-0.834,-0.494,0.565,23.437,-73.059,-8.118
-0.897,-0.466,0.598,26.306,-58.472,-11.963
-0.891,-0.444,0.636,25.940,-36.316,-16.357
-0.854,-0.376,0.620,23.865,-13.733,-20.386
-0.814,-0.277,0.567,18.433,6.104,-20.813
-0.764,-0.285,0.523,9.277,23.010,-14.404
-0.725,-0.254,0.565,2.563,35.583,-8.972
-0.705,-0.266,0.540,3.174,38.391,-3.296
-0.698,-0.278,0.535,2.014,34.668,0.183
-0.679,-0.266,0.548,0.244,28.748,-1.038
-0.684,-0.291,0.562,3.418,19.043,-1.892
-0.683,-0.289,0.594,8.240,10.925,-0.427
-0.704,-0.257,0.614,13.062,7.263,1.038
-0.726,-0.267,0.627,15.259,11.292,1.770
-0.715,-0.278,0.640,16.724,20.508,1.770
-0.712,-0.265,0.672,17.090,29.419,1.099
-0.695,-0.260,0.694,15.259,35.034,0.916
-0.671,-0.288,0.730,12.268,36.987,0.732
-0.631,-0.316,0.761,8.728,32.166,-1.221
-0.603,-0.342,0.784,5.493,20.020,-2.136
-0.604,-0.350,0.784,2.625,6.165,-2.441
-0.626,-0.323,0.740,-0.305,-1.038,-2.136
-0.631,-0.302,0.703,-1.831,2.747,-0.488
-0.630,-0.293,0.665,-1.343,15.198,1.587
-0.618,-0.290,0.648,2.319,30.273,2.930
-0.557,-0.277,0.642,7.080,41.504,3.418
-0.496,-0.278,0.674,12.329,43.579,3.784
-0.467,-0.286,0.714,15.015,36.804,4.883
-0.467,-0.289,0.755,13.611,25.146,7.446
-0.457,-0.280,0.796,9.033,13.611,11.169
-0.502,-0.277,0.820,4.211,5.432,15.625
-0.573,-0.263,0.823,-1.648,3.540,18.738
-0.609,-0.250,0.822,-6.531,8.972,18.677
-0.610,-0.239,0.814,-8.606,16.907,15.930
-0.593,-0.242,0.815,-8.850,18.433,12.573
-0.587,-0.237,0.808,-9.460,10.986,10.254
-0.575,-0.232,0.792,-10.681,0.732,9.521
-0.576,-0.236,0.772,-10.681,-5.859,10.315
-0.575,-0.238,0.766,-8.789,-5.920,10.254
-0.566,-0.251,0.775,-6.104,-1.770,9.338
-0.560,-0.258,0.777,-3.967,2.991,9.583
-0.569,-0.265,0.783,-2.136,5.737,10.803
-0.583,-0.267,0.805,0.122,6.653,12.024
-0.625,-0.263,0.834,1.709,5.554,12.573
-0.672,-0.248,0.828,1.404,4.272,12.451
-0.681,-0.251,0.812,-1.099,5.981,11.108
-0.671,-0.254,0.793,-2.991,9.460,9.094
-0.653,-0.272,0.786,-2.380,12.695,7.874
-0.667,-0.292,0.795,-0.549,15.076,7.751
-0.658,-0.290,0.813,1.221,16.846,6.836
-0.641,-0.286,0.833,1.953,18.188,5.310
-0.628,-0.294,0.847,0.793,19.043,5.493
-0.618,-0.284,0.835,-1.526,21.484,7.141
-0.596,-0.255,0.779,-4.517,27.405,9.338
-0.570,-0.260,0.741,-6.653,35.950,12.024
-0.547,-0.274,0.721,-6.714,43.213,15.320
-0.542,-0.280,0.710,-4.395,47.119,18.616
-0.523,-0.293,0.723,-0.793,47.913,20.935
-0.531,-0.326,0.760,2.197,45.715,22.278
-0.557,-0.345,0.806,5.188,43.030,22.400
-0.543,-0.384,0.857,7.568,43.518,20.813
-0.521,-0.406,0.908,7.629,44.922,18.250
-0.501,-0.404,0.943,4.272,45.166,16.846
-0.470,-0.412,0.947,-0.793,44.983,17.029
-0.446,-0.401,0.933,-4.944,46.692,16.663
-0.448,-0.413,0.912,-9.155,49.683,17.700
-0.466,-0.407,0.895,-12.329,55.847,20.752
-0.505,-0.400,0.871,-12.329,65.430,23.865
-0.544,-0.376,0.861,-9.399,77.759,25.696
-0.564,-0.367,0.862,-5.127,90.149,25.024
-0.564,-0.349,0.865,-2.625,100.098,22.766
-0.539,-0.342,0.871,-1.099,104.431,19.409
-0.523,-0.362,0.880,-0.977,102.600,17.700
-0.528,-0.388,0.876,-1.221,97.351,16.724
-0.510,-0.375,0.875,-0.610,94.360,13.428
-0.462,-0.383,0.893,-0.427,94.360,9.460

0.074,1.096,1.133,22.644,5.310,-47.424
0.041,1.289,1.161,24.963,15.259,-44.556
0.031,1.519,1.167,23.437,31.067,-41.077
0.022,1.726,1.124,21.912,51.514,-36.072
-0.029,1.863,1.074,21.362,75.989,-30.762
-0.055,1.937,1.004,17.273,102.722,-28.137
-0.080,1.974,0.925,14.038,126.831,-26.978
-0.117,1.980,0.879,19.531,143.066,-26.306
-0.126,1.955,0.867,39.368,148.071,-30.884
-0.142,1.859,0.877,70.740,143.555,-45.837
-0.167,1.722,0.937,104.614,133.667,-69.275
-0.143,1.540,1.059,131.104,122.925,-92.834
-0.047,1.331,1.181,143.921,111.755,-110.596
0.018,1.117,1.249,135.742,101.990,-118.469
0.033,0.891,1.223,106.323,102.844,-114.319
0.005,0.628,1.113,64.575,123.474,-101.563
-0.086,0.271,1.004,18.799,169.922,-81.909
-0.074,-0.137,0.961,-22.461,233.154,-55.420
-0.176,-0.529,0.853,-57.556,298.767,-14.038
-0.241,-0.861,0.591,-93.140,361.450,28.931
-0.146,-1.155,0.243,-110.046,411.621,37.720
-0.137,-1.392,-0.207,-93.689,455.872,13.672
0.071,-1.810,-0.527,-28.503,492.004,-25.085
0.442,-2.217,-0.366,77.209,505.127,-67.932
0.680,-2.415,-0.146,176.697,475.464,-91.003
0.734,-2.476,0.075,227.966,401.184,-83.923
0.734,-2.534,0.300,215.759,312.256,-63.965
0.728,-2.670,0.713,148.437,228.333,-58.655
0.785,-2.441,0.860,41.870,146.240,-89.844
0.940,-1.986,0.652,-80.261,82.458,-146.301
1.256,-1.798,0.312,-182.495,51.758,-186.829
1.525,-1.821,-0.179,-243.164,38.635,-197.021
1.593,-1.650,-0.689,-262.634,49.316,-176.514
1.580,-1.316,-0.955,-239.014,96.191,-135.925
1.446,-1.116,-1.126,-170.593,167.358,-89.233
1.394,-0.956,-1.107,-94.482,240.356,-52.734
1.326,-0.785,-0.978,-37.354,280.640,-34.180
1.280,-0.585,-0.827,-5.615,276.672,-25.452
1.230,-0.487,-0.732,6.042,237.793,-16.846
1.128,-0.453,-0.666,4.456,180.847,-9.094
1.018,-0.446,-0.561,-0.977,126.526,-4.028
0.941,-0.474,-0.456,-2.563,80.505,0.977
0.889,-0.496,-0.339,-1.404,43.274,3.540
0.882,-0.492,-0.219,-1.099,14.954,3.174
0.889,-0.469,-0.108,-1.221,-5.249,5.249
0.898,-0.469,-0.042,-2.808,-17.517,11.597
0.865,-0.464,-0.013,-6.287,-21.484,21.667
0.799,-0.441,-0.022,-6.592,-15.686,30.640
0.742,-0.382,-0.027,-1.404,0.671,34.790
0.701,-0.358,-0.033,4.272,24.109,34.729
0.677,-0.318,-0.023,7.385,46.021,31.250
0.669,-0.279,-0.032,7.690,59.692,26.245
0.682,-0.262,-0.051,5.615,62.805,19.653
0.712,-0.243,-0.082,2.502,57.068,9.216
0.764,-0.247,-0.104,-0.122,46.509,-0.732
0.843,-0.251,-0.118,-2.197,32.349,-7.324
0.937,-0.271,-0.134,-3.906,17.212,-11.292
0.998,-0.283,-0.123,-5.676,3.540,-11.108
1.063,-0.297,-0.116,-6.714,-6.042,-7.507
1.101,-0.327,-0.103,-7.202,-12.024,-3.052
1.101,-0.328,-0.088,-7.080,-13.916,0.977
1.084,-0.298,-0.081,-5.066,-10.620,5.188
1.053,-0.267,-0.079,-1.892,-3.296,9.705
1.009,-0.253,-0.085,0.183,7.080,13.550
0.988,-0.240,-0.092,1.404,18.188,15.930
0.989,-0.229,-0.100,0.977,26.001,17.456
0.988,-0.226,-0.112,-1.221,27.588,19.226
1.000,-0.228,-0.138,-3.662,22.644,18.860
1.005,-0.242,-0.175,-6.592,13.916,16.296
1.014,-0.243,-0.223,-8.728,4.211,14.282
1.016,-0.216,-0.259,-7.996,-2.991,13.855
1.014,-0.191,-0.287,-3.601,-6.470,14.404
1.004,-0.188,-0.295,2.869,-4.395,15.869
0.984,-0.204,-0.263,10.376,2.808,17.334
0.978,-0.212,-0.215,18.066,11.230,17.029
0.984,-0.210,-0.174,22.766,15.381,15.198
0.998,-0.207,-0.143,22.278,13.428,14.587
1.011,-0.207,-0.141,18.372,7.690,15.503
1.021,-0.215,-0.154,14.099,0.244,16.785
1.018,-0.223,-0.165,11.047,-6.592,17.273
1.015,-0.222,-0.169,9.827,-12.634,15.869
1.018,-0.234,-0.163,9.155,-17.700,14.404
1.002,-0.234,-0.142,9.521,-23.193,13.062
1.001,-0.233,-0.138,10.315,-30.457,11.963
0.994,-0.225,-0.146,8.484,-36.743,11.353
0.992,-0.219,-0.160,6.409,-38.452,12.390
0.976,-0.215,-0.172,7.812,-35.217,13.489
0.967,-0.208,-0.181,11.719,-26.550,14.038
0.972,-0.209,-0.177,16.968,-13.733,14.099
0.976,-0.210,-0.157,22.278,-0.916,13.550
0.993,-0.216,-0.132,27.222,9.094,13.123
1.002,-0.208,-0.104,30.396,13.367,12.329
1.004,-0.212,-0.075,31.616,11.536,11.780
0.990,-0.218,-0.048,31.189,4.333,12.512
0.971,-0.212,-0.029,28.809,-5.554,12.573
0.966,-0.202,-0.035,23.499,-15.808,10.742
0.968,-0.196,-0.060,16.785,-24.536,8.606
0.957,-0.197,-0.081,12.024,-26.550,7.996
0.956,-0.192,-0.092,10.681,-21.240,8.789
0.972,-0.185,-0.098,10.620,-12.573,10.010
0.975,-0.187,-0.100,11.230,-5.310,11.108
0.976,-0.195,-0.103,12.878,-0.610,12.024
0.981,-0.201,-0.099,14.526,1.953,12.390
0.984,-0.207,-0.100,15.320,1.404,12.268
0.988,-0.210,-0.102,16.113,-1.465,12.512
0.988,-0.195,-0.100,16.968,-5.188,13.428
0.986,-0.181,-0.093,18.311,-8.484,14.099
0.977,-0.183,-0.073,18.738,-11.963,14.099
0.968,-0.171,-0.061,18.066,-15.747,13.489
0.958,-0.164,-0.057,16.907,-18.311,13.550
0.953,-0.160,-0.054,15.442,-18.250,13.794
0.944,-0.147,-0.055,13.977,-15.930,13.062
0.949,-0.139,-0.055,13.611,-12.024,11.230
0.979,-0.141,-0.054,12.939,-6.470,10.742
1.001,-0.148,-0.059,11.780,-1.831,12.268
1.011,-0.154,-0.070,10.498,0.183,13.733
1.018,-0.161,-0.087,9.094,0.488,13.733
1.023,-0.176,-0.103,8.301,-0.366,12.939
1.040,-0.181,-0.126,8.911,-1.892,12.085

1.028,1.174,0.170,1.892,-53.650,-25.757
0.986,1.479,0.073,-1.160,-44.312,-24.475
0.983,1.750,-0.031,-7.202,-24.048,-17.761
1.022,1.882,-0.104,-17.029,-1.343,-7.324
1.071,1.913,-0.159,-23.560,11.719,-1.282
1.111,1.956,-0.209,-18.433,8.118,-0.977
1.136,2.012,-0.175,0.977,-11.047,-2.563
1.130,2.148,-0.110,30.090,-47.913,-4.883
1.094,2.260,-0.064,56.091,-96.008,-7.385
1.014,2.360,-0.038,72.571,-141.479,-8.423
0.848,2.377,0.006,83.069,-174.805,-5.188
0.660,2.353,0.068,87.891,-191.162,-2.563
0.521,2.250,0.138,90.698,-194.519,-4.944
0.411,2.142,0.259,88.013,-190.674,-10.925
0.318,2.001,0.373,79.895,-191.040,-14.832
0.152,1.809,0.481,71.045,-202.515,-20.142
0.005,1.636,0.523,62.256,-225.098,-34.363
-0.163,1.439,0.523,53.955,-254.700,-56.763
-0.368,1.184,0.526,48.523,-290.466,-85.510
-0.521,0.886,0.528,44.556,-329.895,-119.019
-0.585,0.602,0.571,39.856,-364.380,-153.748
-0.687,0.272,0.610,34.119,-386.658,-182.434
-0.653,-0.123,0.612,28.198,-393.982,-202.881
-0.521,-0.524,0.466,23.376,-374.207,-210.083
-0.453,-1.038,0.362,32.043,-311.035,-199.036
-0.248,-1.620,0.719,53.284,-201.233,-162.842
-0.145,-1.988,1.197,72.937,-84.656,-100.098
-0.096,-2.147,1.315,69.214,-15.015,-38.513
-0.303,-2.494,1.158,48.218,-10.681,-6.897
-0.415,-2.746,0.864,22.705,-39.368,-24.353
-0.296,-2.766,0.643,3.052,-64.270,-78.247
-0.002,-2.745,0.570,10.010,-84.656,-131.165
0.083,-2.595,0.634,38.940,-98.877,-164.917
0.430,-2.543,0.747,62.866,-102.722,-164.917
0.441,-2.263,0.805,70.679,-102.539,-153.809
0.365,-1.910,0.813,66.162,-97.717,-147.217
0.402,-1.687,0.776,53.467,-82.458,-143.738
0.586,-1.548,0.811,39.551,-58.899,-141.174
0.703,-1.453,0.933,33.936,-47.424,-130.310
0.594,-1.258,0.863,32.959,-55.908,-114.746
0.622,-1.118,0.924,26.001,-57.922,-88.196
0.619,-1.090,0.966,20.142,-57.922,-64.087
0.477,-0.991,0.991,16.602,-63.049,-51.086
0.395,-0.843,1.014,12.512,-64.758,-41.199
0.332,-0.733,1.025,10.742,-59.814,-32.227
0.250,-0.631,1.005,5.676,-49.805,-24.231
0.171,-0.547,0.943,-2.808,-32.593,-14.832
0.107,-0.520,0.849,-9.277,-8.362,-6.653
0.063,-0.505,0.777,-11.841,16.785,-1.770
0.067,-0.473,0.722,-9.094,36.011,1.709
0.108,-0.446,0.688,-2.258,45.166,4.333
0.154,-0.424,0.699,5.493,44.250,4.517
0.217,-0.371,0.719,9.521,32.837,4.883
0.240,-0.333,0.757,9.583,14.771,7.690
0.224,-0.337,0.785,5.066,-4.395,10.742
0.201,-0.341,0.817,0.244,-20.386,9.521
0.237,-0.362,0.868,-1.648,-26.917,4.578
0.269,-0.364,0.894,0.671,-25.696,-0.244
0.306,-0.365,0.941,3.174,-16.907,-1.343
0.369,-0.396,0.988,3.723,-3.296,-0.183
0.399,-0.410,0.993,3.235,11.536,0.366
0.401,-0.393,0.988,3.845,25.513,1.099
0.415,-0.381,0.990,5.249,37.476,4.517
0.409,-0.375,0.995,5.249,44.556,9.094
0.375,-0.365,0.979,2.930,45.959,12.939
0.365,-0.354,0.935,-1.099,42.236,15.381
0.365,-0.347,0.880,-6.653,34.180,15.564
0.374,-0.341,0.844,-12.085,23.743,15.381
0.383,-0.314,0.791,-16.052,11.047,16.907
0.354,-0.282,0.741,-18.738,-2.136,18.799
0.303,-0.269,0.716,-19.226,-10.315,20.203
0.251,-0.259,0.707,-16.846,-14.343,20.447
0.222,-0.259,0.723,-12.756,-15.869,19.165
0.191,-0.254,0.743,-7.446,-17.151,16.541
0.186,-0.229,0.765,-2.197,-19.165,13.367
0.198,-0.228,0.799,1.526,-21.362,8.850
0.226,-0.231,0.844,3.723,-23.621,4.761
0.235,-0.226,0.858,4.883,-27.161,1.892
0.250,-0.243,0.877,4.150,-30.579,0.061
0.254,-0.228,0.897,3.601,-33.447,-2.136
0.272,-0.263,0.907,2.258,-35.339,-1.953
0.290,-0.278,0.925,0.488,-34.729,-0.061
0.282,-0.269,0.936,0.854,-31.616,2.441
0.277,-0.264,0.947,2.563,-25.208,5.249
0.274,-0.270,0.939,2.136,-15.137,6.409
0.303,-0.302,0.953,-0.549,-5.249,6.531
0.328,-0.324,0.960,-3.723,0.305,5.676
0.341,-0.341,0.938,-7.019,0.854,5.737
0.353,-0.352,0.912,-10.803,-1.282,6.897
0.355,-0.358,0.909,-12.512,-3.601,8.240
0.352,-0.377,0.909,-12.329,-5.493,10.010
0.338,-0.365,0.905,-11.658,-6.836,12.024
0.309,-0.317,0.900,-9.705,-7.874,13.855
0.280,-0.268,0.857,-8.545,-7.080,16.418
0.258,-0.263,0.830,-8.118,-3.723,17.944
0.233,-0.291,0.841,-7.935,0.610,16.663
0.220,-0.305,0.856,-6.409,4.822,13.000
0.216,-0.336,0.880,-2.502,8.667,10.437
0.215,-0.344,0.900,2.258,12.878,10.254
0.234,-0.357,0.956,6.836,17.273,12.573
0.263,-0.316,0.972,9.460,19.714,15.015
0.292,-0.286,0.965,7.568,20.874,17.639
0.308,-0.310,0.989,2.686,21.912,20.203
0.311,-0.349,1.007,-2.258,22.644,21.240
0.304,-0.381,1.014,-5.859,22.217,21.179
0.316,-0.392,1.028,-8.667,22.400,20.752
0.331,-0.387,1.012,-12.268,22.278,20.264
0.344,-0.406,0.960,-16.724,22.095,21.057
0.352,-0.416,0.920,-21.484,23.254,22.644
0.335,-0.433,0.896,-23.499,25.818,25.635
0.317,-0.463,0.883,-21.240,28.809,29.358
0.306,-0.481,0.877,-17.456,33.020,30.884
0.316,-0.489,0.889,-13.794,37.842,31.250
0.332,-0.471,0.893,-10.742,42.725,32.837
0.344,-0.432,0.900,-7.751,47.852,36.316
0.341,-0.407,0.904,-5.981,52.185,40.771
0.326,-0.407,0.913,-6.714,56.091,44.861
0.310,-0.430,0.917,-10.254,58.777,48.096
0.320,-0.474,0.921,-13.000,58.533,50.049

0.767,1.109,0.438,9.155,-61.340,-67.322
0.802,1.478,0.359,25.269,-66.833,-75.745
0.849,1.828,0.283,37.048,-70.190,-87.646
0.832,2.066,0.314,40.833,-75.745,-100.281
0.782,2.355,0.347,39.001,-94.910,-109.558
0.698,2.536,0.423,39.734,-127.502,-106.934
0.531,2.625,0.529,44.434,-167.664,-97.046
0.350,2.714,0.598,50.720,-205.566,-89.600
0.172,2.786,0.677,56.152,-229.431,-82.092
0.015,2.836,0.734,60.791,-236.694,-74.646
-0.133,2.865,0.784,65.552,-228.760,-71.838
-0.294,2.771,0.861,71.472,-211.060,-75.867
-0.483,2.546,0.908,71.594,-191.528,-86.792
-0.629,2.266,0.835,64.026,-176.025,-106.506
-0.789,1.890,0.725,55.420,-165.833,-132.812
-0.964,1.437,0.594,50.964,-166.504,-160.522
-1.049,0.973,0.516,53.345,-179.871,-187.378
-1.075,0.562,0.490,60.791,-203.125,-209.717
-0.999,0.058,0.445,67.383,-227.112,-223.267
-0.758,-0.489,0.440,68.176,-234.375,-226.929
-0.492,-1.004,0.507,65.125,-211.060,-213.379
-0.229,-1.403,0.666,55.237,-155.334,-172.180
-0.336,-1.833,0.634,35.645,-79.346,-112.000
-0.577,-2.317,0.663,13.855,7.507,-66.956
-0.667,-2.716,0.849,10.742,70.862,-57.800
-0.722,-2.899,0.931,16.724,67.627,-76.904
-0.568,-3.043,0.913,12.329,-5.615,-105.103
-0.305,-3.087,1.000,4.822,-114.075,-123.291
-0.244,-2.997,0.954,7.874,-215.698,-125.488
-0.176,-2.789,0.928,30.273,-265.869,-123.535
-0.089,-2.527,1.024,71.106,-247.864,-125.854
0.099,-2.325,1.205,119.202,-184.082,-123.474
0.152,-2.068,1.254,158.752,-112.671,-120.178
0.305,-1.652,1.518,169.250,-38.330,-119.263
0.264,-1.381,1.579,162.109,10.864,-106.445
0.241,-1.229,1.543,125.061,45.715,-86.121
0.271,-1.137,1.460,70.251,71.594,-68.665
0.313,-1.004,1.231,22.766,80.078,-55.847
0.345,-0.842,0.975,-7.812,79.041,-44.678
0.344,-0.738,0.730,-21.973,75.073,-32.043
0.377,-0.702,0.574,-23.865,69.092,-18.433
0.355,-0.649,0.496,-17.334,60.730,-11.169
0.279,-0.563,0.467,-4.272,45.959,-9.155
0.174,-0.493,0.472,9.644,27.405,-7.690
0.066,-0.487,0.537,20.691,10.010,-4.150
-0.032,-0.479,0.652,28.381,-3.113,-3.296
-0.123,-0.414,0.733,29.846,-16.724,-4.578
-0.135,-0.378,0.792,23.315,-29.724,-4.517
-0.065,-0.367,0.850,10.864,-37.476,-1.404
-0.049,-0.339,0.843,-3.967,-40.710,5.737
-0.076,-0.331,0.811,-16.113,-37.109,11.292
-0.071,-0.358,0.806,-21.240,-25.208,11.353
-0.052,-0.364,0.813,-18.799,-11.169,9.338
-0.034,-0.336,0.786,-12.390,0.977,9.583
-0.033,-0.312,0.774,-4.822,13.306,10.498
-0.032,-0.291,0.773,2.319,23.743,9.583
-0.029,-0.267,0.776,9.155,31.494,7.202
-0.021,-0.281,0.808,15.564,36.377,4.578
0.002,-0.280,0.855,18.738,36.499,1.587
0.037,-0.303,0.896,17.456,30.334,-0.488
0.027,-0.321,0.941,13.123,18.494,-2.014
0.012,-0.323,0.972,7.263,7.202,-2.380
0.043,-0.316,0.984,1.282,0.916,-1.709
0.054,-0.337,0.967,-3.967,-0.977,-0.793
0.055,-0.354,0.958,-5.615,2.075,0.122
0.050,-0.340,0.959,-2.747,7.751,1.343
0.074,-0.330,0.965,1.587,13.489,2.869
0.096,-0.336,0.967,3.052,18.982,5.310
0.104,-0.353,0.973,2.014,22.156,7.019
0.106,-0.371,0.984,0.977,22.217,7.202
0.096,-0.387,0.991,1.343,19.287,6.348
0.108,-0.380,0.983,1.587,14.343,4.333
0.126,-0.374,0.969,1.709,9.521,1.831
0.138,-0.382,0.956,0.793,6.165,0.732
0.144,-0.379,0.944,-0.549,4.822,1.099
0.138,-0.365,0.925,-0.793,5.188,1.831
0.130,-0.366,0.920,-0.427,6.836,2.686
0.115,-0.352,0.921,-0.366,7.812,3.723
0.089,-0.325,0.921,0.793,8.484,4.700
0.058,-0.301,0.918,1.648,9.888,5.005
0.037,-0.297,0.918,1.099,12.085,4.639
0.019,-0.297,0.906,0.610,14.526,3.967
0.023,-0.302,0.898,1.099,17.456,3.113
0.046,-0.316,0.904,1.831,20.569,1.099
0.081,-0.338,0.919,1.282,20.813,-0.793
0.119,-0.359,0.916,-0.732,16.785,-2.075
0.151,-0.369,0.903,-3.540,9.705,-2.991
0.157,-0.380,0.884,-4.761,1.953,-3.723
0.155,-0.398,0.883,-2.808,-3.540,-3.845
0.157,-0.396,0.891,1.587,-6.897,-4.456
0.158,-0.369,0.905,5.554,-8.118,-4.761
0.154,-0.376,0.932,7.080,-6.897,-3.906
0.135,-0.380,0.950,6.714,-3.906,-3.174
0.127,-0.368,0.949,5.981,-0.916,-2.808
0.132,-0.360,0.947,4.578,1.648,-2.441
0.127,-0.372,0.955,3.784,2.686,-2.258
0.117,-0.380,0.976,3.906,2.808,-1.953
0.114,-0.386,0.998,4.395,2.625,-1.343
0.108,-0.387,1.021,3.662,2.563,-1.465
0.107,-0.399,1.039,1.465,2.563,-2.808
0.114,-0.404,1.039,-2.258,3.052,-3.479
0.127,-0.376,1.020,-5.249,2.686,-3.113
0.129,-0.350,0.997,-7.385,1.343,-1.709
0.116,-0.345,0.972,-9.338,1.465,-0.671
0.107,-0.353,0.961,-10.071,2.930,-0.977
0.099,-0.355,0.951,-8.301,3.967,-1.587
0.106,-0.354,0.958,-4.517,4.517,-1.282
0.113,-0.335,0.951,-1.221,4.578,-0.916
0.119,-0.335,0.975,0.488,5.371,-0.549
0.123,-0.346,0.990,0.183,6.775,0.244
0.116,-0.338,0.994,-0.977,8.057,1.160
0.113,-0.331,0.981,-2.747,10.864,2.258
0.128,-0.319,0.961,-5.371,14.343,3.479
0.126,-0.309,0.921,-7.996,16.907,4.517
0.131,-0.299,0.885,-10.010,18.738,5.371
0.143,-0.296,0.863,-10.437,20.813,6.165
0.140,-0.296,0.848,-9.399,21.729,6.470
0.142,-0.300,0.850,-7.568,21.240,6.165
0.161,-0.301,0.850,-5.737,19.226,5.554

0.761,1.042,0.464,-19.165,98.206,-8.118
0.796,1.203,0.515,-17.151,107.788,-10.315
0.844,1.403,0.562,-18.982,110.657,-11.536
0.883,1.642,0.558,-25.574,105.652,-13.428
0.878,1.854,0.531,-35.461,96.741,-15.503
0.848,2.006,0.491,-45.593,85.205,-17.639
0.783,2.136,0.471,-50.659,66.650,-18.860
0.615,2.230,0.467,-45.532,38.574,-16.357
0.450,2.342,0.499,-28.503,1.587,-10.010
0.247,2.498,0.505,-4.272,-39.917,-3.479
0.109,2.632,0.553,17.639,-76.050,3.357
-0.094,2.774,0.585,32.104,-102.417,8.240
-0.190,2.851,0.605,36.682,-113.953,9.399
-0.291,2.820,0.625,30.273,-111.633,4.333
-0.364,2.731,0.621,14.038,-99.426,-5.859
-0.472,2.552,0.552,-2.991,-86.182,-16.785
-0.603,2.316,0.459,-17.456,-73.608,-27.893
-0.757,1.948,0.348,-28.625,-59.021,-40.649
-0.928,1.535,0.279,-34.302,-34.790,-59.692
-0.997,1.112,0.230,-31.372,2.930,-85.693
-0.977,0.683,0.189,-20.264,50.903,-118.042
-0.933,0.185,0.207,-2.502,104.614,-157.227
-0.806,-0.495,0.400,24.597,147.705,-197.266
-0.376,-1.141,0.924,45.898,155.884,-215.454
0.198,-1.457,0.998,38.635,96.008,-195.068
0.579,-1.598,0.529,-7.568,-15.381,-151.062
0.684,-1.915,0.090,-57.922,-113.770,-121.704
0.883,-2.358,-0.328,-59.814,-146.240,-126.343
1.149,-2.672,-0.347,-15.686,-101.624,-154.053
1.500,-3.044,-0.107,48.157,-18.799,-173.035
1.720,-2.981,0.109,98.633,53.101,-189.148
1.897,-2.634,0.228,123.596,97.412,-198.120
2.044,-2.241,0.260,121.460,106.323,-202.393
2.089,-1.798,0.281,102.295,82.581,-202.271
2.094,-1.380,0.248,75.378,35.461,-185.486
1.993,-1.100,0.110,45.471,-16.235,-150.574
1.781,-0.974,-0.032,15.686,-48.340,-115.173
1.621,-0.890,-0.053,0.305,-45.837,-92.834
1.480,-0.785,-0.070,5.920,-18.738,-79.346
1.412,-0.632,-0.038,20.142,19.714,-69.092
1.385,-0.519,0.013,32.532,54.749,-55.847
1.270,-0.435,0.043,36.377,76.111,-39.001
1.137,-0.386,0.070,32.043,85.266,-23.193
1.014,-0.375,0.113,26.611,84.534,-14.282
0.924,-0.361,0.148,22.522,73.120,-10.559
0.852,-0.339,0.173,17.822,51.880,-6.775
0.793,-0.294,0.168,12.268,29.114,-5.493
0.721,-0.242,0.128,8.545,14.893,-5.249
0.726,-0.247,0.113,7.263,17.456,-4.395
0.663,-0.206,0.111,10.193,29.724,-10.254
0.620,-0.061,0.102,14.771,45.715,-17.456
0.675,-0.126,0.171,17.578,59.814,-17.334
0.708,-0.147,0.231,17.273,62.378,-19.226
0.748,-0.134,0.291,12.512,50.598,-18.188
0.785,-0.112,0.311,4.150,28.442,-19.653
0.845,-0.092,0.287,-5.066,7.812,-21.240
0.941,-0.118,0.249,-11.658,-5.005,-23.865
1.011,-0.137,0.224,-15.564,-8.606,-25.696
1.045,-0.139,0.213,-16.541,-3.540,-25.879
1.066,-0.134,0.200,-15.015,4.517,-23.743
1.068,-0.135,0.192,-13.489,11.902,-21.301
1.073,-0.144,0.180,-11.536,16.785,-19.165
1.075,-0.145,0.165,-8.972,20.569,-18.188
1.091,-0.135,0.145,-7.507,25.818,-17.151
1.131,-0.150,0.113,-6.470,31.799,-14.648
1.143,-0.176,0.103,-4.944,37.537,-9.277
1.147,-0.186,0.097,0.061,41.992,-3.662
1.150,-0.187,0.106,6.958,44.128,-0.732
1.131,-0.168,0.131,11.475,42.175,0.183
1.097,-0.195,0.172,13.672,37.048,1.099
1.060,-0.169,0.191,14.099,30.457,1.770
1.036,-0.136,0.188,12.085,26.306,3.113
1.014,-0.115,0.172,7.507,26.123,3.906
1.000,-0.103,0.163,2.319,29.846,3.357
0.981,-0.103,0.139,-1.465,33.447,2.441
0.973,-0.111,0.116,-3.845,35.583,1.038
0.964,-0.118,0.086,-4.456,36.316,-1.282
0.949,-0.103,0.073,-2.930,35.461,-2.808
0.934,-0.125,0.062,-0.671,34.241,-3.113
0.912,-0.145,0.060,1.587,32.104,-3.296
0.891,-0.143,0.072,5.371,28.076,-5.798
0.907,-0.122,0.080,6.104,22.583,-10.559
0.944,-0.118,0.062,2.197,15.686,-15.991
0.966,-0.131,0.064,-4.944,8.545,-18.738
1.011,-0.134,0.034,-10.681,3.357,-18.738
1.015,-0.128,0.057,-14.526,0.610,-17.395
1.030,-0.183,0.068,-11.292,3.113,-11.353
1.091,-0.156,0.065,-0.854,6.714,-3.967
0.970,-0.130,0.141,0.549,-1.648,-4.395
0.945,-0.152,0.152,2.686,-6.409,-3.418
0.920,-0.168,0.172,3.845,-7.507,-4.822
0.907,-0.118,0.158,4.822,-4.395,-7.080
0.910,-0.075,0.133,1.648,-2.747,-8.545
0.921,-0.084,0.129,-1.343,-1.709,-9.094
0.930,-0.061,0.129,-2.991,-3.967,-12.817
0.918,-0.058,0.157,-3.113,-9.827,-17.456
0.910,-0.095,0.196,-4.028,-18.005,-20.813
0.920,-0.136,0.218,-6.897,-28.015,-23.499
0.946,-0.162,0.189,-10.071,-36.682,-25.085
0.964,-0.188,0.165,-12.024,-41.016,-24.231
0.984,-0.216,0.162,-11.292,-40.649,-21.545
1.001,-0.228,0.161,-9.155,-38.818,-17.944
1.017,-0.235,0.140,-7.690,-36.926,-13.794
1.018,-0.238,0.139,-6.165,-34.729,-10.803
1.007,-0.254,0.152,-4.150,-31.128,-8.789
0.993,-0.264,0.173,-1.038,-25.635,-6.836
0.982,-0.265,0.180,2.197,-18.250,-4.517
0.984,-0.277,0.177,3.357,-11.719,-2.930
0.994,-0.282,0.167,2.197,-7.751,-1.892
1.000,-0.279,0.156,2.625,-6.775,-1.648
1.001,-0.287,0.158,4.028,-8.667,-1.648
0.993,-0.287,0.157,5.676,-12.878,-1.709
0.982,-0.278,0.156,9.094,-17.822,-0.732
0.975,-0.261,0.155,13.489,-21.790,2.014
0.967,-0.238,0.155,17.029,-22.949,5.188
0.955,-0.211,0.158,18.555,-21.484,7.507
0.942,-0.200,0.153,18.127,-17.090,9.888
0.927,-0.193,0.142,17.395,-11.108,11.719
0.918,-0.193,0.153,17.212,-4.639,12.817

1.135,0.699,0.290,-33.203,-67.322,-41.504
1.157,0.884,0.292,-36.072,-71.838,-46.204
1.185,1.098,0.298,-35.889,-73.547,-48.767
1.212,1.313,0.333,-35.217,-72.510,-47.852
1.240,1.555,0.356,-35.828,-68.848,-49.377
1.275,1.817,0.320,-38.940,-63.110,-53.467
1.282,2.009,0.299,-46.387,-57.678,-51.392
1.320,2.162,0.260,-54.016,-61.829,-44.800
1.317,2.288,0.165,-60.242,-78.857,-39.917
1.274,2.315,0.094,-63.965,-103.882,-39.795
1.223,2.271,0.045,-60.486,-136.536,-46.387
1.080,2.164,0.067,-43.823,-179.871,-55.054
0.874,2.100,0.159,-17.700,-233.093,-60.120
0.605,2.066,0.299,12.390,-289.246,-60.608
0.338,2.033,0.499,40.710,-335.999,-56.030
0.061,2.053,0.689,60.913,-362.488,-48.096
-0.236,2.018,0.845,73.120,-361.084,-44.312
-0.444,1.955,0.895,74.341,-328.430,-54.016
-0.548,1.819,0.909,65.491,-271.362,-74.646
-0.511,1.653,0.837,54.138,-213.379,-97.961
-0.457,1.461,0.739,43.213,-169.312,-118.164
-0.435,1.239,0.651,31.677,-142.456,-132.202
-0.402,0.961,0.586,20.081,-133.240,-138.611
-0.345,0.668,0.506,7.812,-135.010,-140.198
-0.374,0.358,0.419,-3.784,-139.465,-139.832
-0.422,-0.019,0.350,-11.536,-137.512,-139.893
-0.345,-0.350,0.358,-16.174,-121.521,-139.221
-0.331,-0.669,0.284,-14.282,-96.497,-137.756
-0.329,-1.004,0.289,-6.775,-61.951,-134.399
-0.352,-1.338,0.341,2.014,-26.184,-127.991
-0.489,-1.709,0.464,12.268,-4.028,-125.488
-0.457,-2.101,0.632,21.851,-6.165,-137.878
-0.190,-2.438,0.739,30.884,-35.706,-158.630
0.100,-2.484,0.942,37.964,-83.313,-165.222
0.259,-2.588,0.978,45.227,-132.080,-140.503
0.291,-2.447,0.948,48.218,-166.931,-115.295
0.386,-2.213,0.995,48.767,-173.340,-88.196
0.401,-2.179,1.007,54.199,-167.236,-59.387
0.352,-2.032,1.063,61.279,-152.161,-50.171
0.330,-1.811,1.183,68.604,-131.287,-53.711
0.352,-1.579,1.267,72.449,-110.596,-62.012
0.406,-1.363,1.240,67.749,-90.942,-73.303
0.492,-1.170,1.197,54.688,-66.833,-84.290
0.537,-1.022,1.156,40.771,-39.429,-87.463
0.554,-0.933,1.062,31.799,-13.062,-77.942
0.598,-0.891,0.983,25.391,10.925,-61.707
0.597,-0.814,0.909,22.034,28.259,-49.805
0.549,-0.711,0.849,22.278,38.757,-39.490
0.494,-0.620,0.799,23.437,44.739,-28.992
0.444,-0.521,0.743,22.888,46.387,-19.897
0.381,-0.443,0.676,20.691,43.091,-13.000
0.317,-0.392,0.643,18.494,36.377,-8.362
0.243,-0.365,0.645,17.517,27.771,-5.432
0.162,-0.358,0.686,18.738,18.188,-3.418
0.136,-0.346,0.757,20.569,7.751,-3.357
0.135,-0.320,0.801,18.860,-3.845,-3.906
0.155,-0.322,0.835,12.695,-13.672,-5.371
0.220,-0.302,0.893,4.150,-20.569,-6.287
0.280,-0.322,0.925,-2.563,-27.527,-3.662
0.288,-0.303,0.940,-7.996,-32.166,-0.122
0.272,-0.287,0.939,-11.841,-31.799,2.197
0.276,-0.286,0.945,-12.939,-24.902,2.441
0.300,-0.299,0.958,-11.353,-12.390,0.793
0.296,-0.264,0.945,-7.874,1.282,-1.099
0.305,-0.262,0.939,-4.639,15.015,-2.136
0.311,-0.269,0.924,-3.296,27.405,-3.784
0.317,-0.279,0.901,-1.282,36.560,-6.470
0.338,-0.287,0.874,1.099,41.931,-8.179
0.370,-0.297,0.848,3.418,43.274,-8.362
0.381,-0.314,0.830,5.188,41.199,-7.629
0.390,-0.330,0.837,4.944,36.926,-7.080
0.403,-0.333,0.856,2.930,29.541,-8.118
0.431,-0.327,0.872,-0.854,19.470,-9.583
0.455,-0.352,0.884,-6.287,8.667,-9.399
0.464,-0.333,0.889,-13.000,-0.610,-6.897
0.467,-0.327,0.880,-18.616,-6.836,-2.808
0.454,-0.325,0.872,-22.522,-9.583,1.282
0.436,-0.319,0.856,-23.926,-10.193,4.272
0.422,-0.318,0.839,-20.752,-8.667,5.615
0.420,-0.317,0.833,-15.076,-5.127,4.883
0.429,-0.309,0.839,-8.850,-1.038,3.540
0.422,-0.323,0.846,-1.770,2.747,2.197
0.412,-0.328,0.842,4.578,6.897,1.465
0.401,-0.315,0.828,9.644,10.803,1.221
0.387,-0.305,0.827,13.733,14.038,2.563
0.376,-0.297,0.831,16.296,16.357,3.906
0.363,-0.290,0.839,15.747,18.127,4.517
0.359,-0.279,0.853,12.207,19.409,4.272
0.343,-0.279,0.868,5.981,17.822,4.272
0.333,-0.281,0.863,-1.038,11.108,3.540
0.342,-0.291,0.852,-7.446,0.977,1.648
0.363,-0.307,0.839,-12.085,-9.766,-0.610
0.373,-0.312,0.820,-13.550,-19.714,-2.014
0.400,-0.305,0.800,-11.902,-27.405,-2.014
0.427,-0.302,0.797,-9.033,-31.067,-0.427
0.422,-0.302,0.808,-4.395,-30.457,1.526
0.394,-0.303,0.826,1.038,-26.001,2.502
0.384,-0.290,0.842,5.493,-19.043,2.380
0.385,-0.287,0.861,9.033,-12.085,2.014
0.378,-0.290,0.885,11.536,-6.531,1.404
0.369,-0.293,0.898,12.268,-2.258,0.732
0.365,-0.288,0.908,11.536,0.427,0.671
0.367,-0.281,0.913,10.010,1.831,0.977
0.364,-0.281,0.912,7.751,2.258,1.282
0.355,-0.282,0.904,4.944,1.953,2.014
0.349,-0.279,0.886,3.418,1.587,2.502
0.352,-0.274,0.875,2.197,1.770,2.808
0.330,-0.275,0.860,1.587,1.343,2.930
0.330,-0.289,0.852,1.404,1.587,2.747
0.341,-0.283,0.862,1.892,2.319,0.916
0.354,-0.268,0.853,2.380,1.953,1.038
0.386,-0.298,0.857,2.869,-0.366,6.104
0.387,-0.312,0.857,4.333,-3.906,8.850
0.390,-0.310,0.873,7.019,-6.409,9.033
0.376,-0.308,0.896,9.583,-7.996,9.338
0.363,-0.308,0.906,11.353,-8.240,10.254
0.373,-0.303,0.922,10.620,-6.470,10.986
0.368,-0.288,0.920,8.606,-3.784,10.803
0.361,-0.272,0.912,5.737,-0.061,10.254

0.942,1.061,0.334,-17.883,-15.991,-66.101
1.027,1.209,0.303,-16.357,-14.954,-70.740
1.137,1.354,0.285,-12.451,-9.949,-72.144
1.280,1.514,0.274,-5.981,-2.930,-69.641
1.392,1.662,0.282,0.610,2.869,-60.486
1.454,1.808,0.314,5.371,2.686,-46.448
1.457,1.987,0.323,10.437,-3.357,-32.837
1.422,2.201,0.356,16.296,-13.611,-22.644
1.324,2.360,0.384,20.996,-29.480,-14.282
1.166,2.441,0.413,22.644,-50.842,-6.470
0.965,2.460,0.407,20.630,-76.355,1.892
0.732,2.447,0.382,16.785,-98.816,13.184
0.472,2.452,0.412,15.564,-115.234,24.414
0.240,2.440,0.478,15.930,-128.174,33.813
0.006,2.408,0.538,16.174,-138.611,33.081
-0.241,2.351,0.604,18.127,-142.944,16.113
-0.382,2.221,0.623,22.644,-139.893,-16.479
-0.426,2.025,0.576,28.076,-128.540,-58.350
-0.482,1.739,0.528,33.630,-109.619,-98.145
-0.544,1.483,0.510,41.382,-90.637,-128.418
-0.669,1.279,0.594,49.683,-81.543,-138.367
-0.831,1.042,0.669,48.035,-84.412,-126.282
-1.065,0.685,0.631,25.818,-89.050,-111.755
-1.402,0.220,0.435,-9.094,-78.369,-118.042
-1.476,-0.358,0.116,-35.217,-43.884,-154.236
-1.075,-1.254,-0.137,-24.414,12.329,-210.571
-0.608,-2.115,0.055,27.100,84.900,-260.681
-0.171,-2.614,0.550,91.492,139.893,-279.846
0.529,-2.978,1.012,126.343,139.038,-255.493
0.957,-3.274,1.077,97.290,75.745,-190.002
0.952,-3.358,0.753,10.681,-25.574,-134.094
0.814,-3.225,0.539,-59.082,-104.553,-126.404
1.045,-2.980,0.525,-62.439,-125.427,-150.024
1.179,-2.510,0.255,-16.418,-103.394,-166.138
1.342,-2.233,0.259,37.781,-40.344,-145.569
1.103,-1.873,0.279,81.970,27.832,-124.939
0.911,-1.592,0.473,115.845,81.787,-112.305
0.810,-1.304,0.574,131.287,98.877,-108.948
0.690,-1.182,0.687,123.657,86.426,-103.760
0.568,-1.057,0.797,100.891,58.777,-96.436
0.480,-0.935,0.841,79.468,30.640,-90.637
0.478,-0.844,0.801,65.247,7.507,-86.121
0.545,-0.737,0.754,52.795,-1.526,-81.726
0.651,-0.625,0.724,41.992,5.859,-73.059
0.700,-0.585,0.699,29.358,22.095,-57.922
0.703,-0.581,0.692,14.343,35.828,-40.222
0.667,-0.555,0.626,1.221,40.344,-25.085
0.619,-0.514,0.516,-6.042,38.086,-13.367
0.548,-0.480,0.432,-5.005,34.607,-3.296
0.479,-0.400,0.365,2.258,32.715,2.197
0.468,-0.320,0.363,12.573,35.522,-0.061
0.501,-0.297,0.393,23.071,40.527,-5.798
0.565,-0.309,0.417,30.273,43.945,-11.841
0.673,-0.362,0.475,33.569,43.701,-14.954
0.759,-0.381,0.544,31.372,38.635,-11.963
0.783,-0.363,0.562,23.193,29.114,-5.554
0.809,-0.333,0.576,11.780,20.264,-1.831
0.820,-0.341,0.576,1.587,13.855,1.831
0.784,-0.346,0.534,-4.456,11.780,5.554
0.786,-0.334,0.507,-5.127,17.090,6.653
0.816,-0.350,0.494,-2.625,26.428,5.127
0.846,-0.375,0.484,-2.075,32.715,2.991
0.854,-0.368,0.447,-4.150,34.546,1.099
0.850,-0.379,0.411,-7.141,34.729,-0.183
0.868,-0.377,0.369,-9.644,36.194,-2.441
0.897,-0.375,0.380,-6.775,36.926,-3.357
0.896,-0.369,0.372,-3.174,32.593,-2.197
0.900,-0.362,0.370,-1.343,26.611,-2.014
0.933,-0.364,0.376,-0.183,21.545,-2.075
0.960,-0.384,0.396,0.488,17.090,0.061
0.976,-0.394,0.411,-0.671,13.428,3.784
0.983,-0.396,0.427,-3.906,11.230,8.667
0.952,-0.402,0.437,-7.202,11.292,14.465
0.900,-0.409,0.432,-9.521,15.198,17.639
0.866,-0.392,0.428,-9.521,23.254,16.052
0.865,-0.344,0.423,-6.653,29.419,13.184
0.833,-0.345,0.405,-3.296,29.968,11.963
0.820,-0.320,0.396,-0.793,25.452,8.972
0.832,-0.304,0.376,0.427,18.005,4.822
0.841,-0.317,0.359,0.244,9.521,1.404
0.847,-0.318,0.335,0.427,1.770,-0.732
0.872,-0.317,0.326,2.563,-4.944,-1.526
0.875,-0.341,0.364,7.263,-10.864,-1.892
0.878,-0.334,0.416,12.268,-15.198,-2.563
0.885,-0.326,0.458,13.672,-17.578,-1.709
0.882,-0.332,0.492,11.902,-19.104,-0.244
0.887,-0.343,0.517,9.399,-20.081,0.183
0.888,-0.345,0.543,6.775,-20.203,2.563
0.858,-0.344,0.546,4.944,-19.958,6.775
0.841,-0.341,0.540,3.235,-17.273,8.423
0.846,-0.337,0.530,1.404,-11.658,7.080
0.853,-0.338,0.524,0.610,-6.470,6.653
0.848,-0.335,0.512,1.587,-2.441,7.507
0.840,-0.329,0.504,2.502,1.953,8.118
0.839,-0.301,0.500,3.296,6.592,7.568
0.839,-0.303,0.498,3.540,10.742,7.568
0.831,-0.317,0.500,2.747,13.794,7.446
0.837,-0.322,0.502,1.709,14.465,6.958
0.849,-0.328,0.500,1.282,13.123,6.592
0.863,-0.341,0.492,1.038,10.681,6.531
0.864,-0.345,0.485,1.221,7.996,5.981
0.862,-0.329,0.473,1.160,5.127,6.042
0.849,-0.317,0.459,0.977,2.686,7.080
0.834,-0.322,0.456,0.244,0.732,7.690
0.817,-0.310,0.454,-0.122,-0.305,7.996
0.810,-0.303,0.436,-0.366,0.122,9.033
0.798,-0.311,0.430,0.122,2.869,9.155
0.786,-0.311,0.435,2.502,7.629,8.545
0.799,-0.322,0.424,5.493,13.916,8.362
0.808,-0.309,0.423,8.728,19.958,8.057
0.807,-0.296,0.430,11.902,24.597,7.996
0.806,-0.289,0.437,12.756,27.283,7.996
0.808,-0.290,0.444,11.536,26.550,7.080
0.805,-0.295,0.445,9.399,21.729,6.287
0.799,-0.300,0.449,6.958,14.343,5.798
0.804,-0.304,0.451,4.639,6.042,4.700
0.819,-0.309,0.447,1.770,-1.892,4.395
0.819,-0.306,0.437,0.366,-6.226,6.348
0.821,-0.290,0.428,0.549,-6.104,8.972

1.238,1.067,0.127,20.081,38.391,-34.607
1.276,1.356,0.127,25.757,57.129,-35.034
1.288,1.632,0.192,24.170,71.472,-28.687
1.207,1.957,0.220,11.536,76.111,-17.456
1.140,2.251,0.217,-7.568,68.665,-4.211
1.041,2.431,0.147,-23.376,48.645,3.906
0.884,2.497,0.140,-29.846,20.996,1.709
0.803,2.575,0.149,-27.771,-13.550,-11.780
0.730,2.623,0.136,-17.761,-54.993,-34.607
0.613,2.567,0.118,-3.296,-94.971,-61.707
0.589,2.484,0.122,9.033,-124.268,-89.539
0.641,2.326,0.162,17.029,-139.771,-106.323
0.538,2.154,0.227,19.775,-143.250,-106.812
0.400,1.946,0.301,18.372,-137.024,-99.060
0.238,1.755,0.371,12.329,-120.483,-92.896
0.058,1.532,0.371,-0.061,-99.426,-93.140
-0.082,1.262,0.303,-17.212,-78.491,-103.271
-0.238,0.937,0.207,-26.306,-59.998,-123.779
-0.311,0.514,0.012,-18.494,-41.260,-151.794
-0.276,-0.035,-0.214,8.057,-15.381,-183.472
-0.255,-0.663,-0.253,53.955,31.555,-212.646
0.059,-1.448,0.168,113.281,99.365,-226.685
0.306,-1.820,0.956,154.053,174.438,-204.956
0.570,-2.159,1.323,143.921,234.497,-157.654
0.481,-2.204,1.234,52.612,225.342,-104.614
0.681,-2.699,1.415,-69.519,138.855,-20.630
0.701,-3.306,0.848,-154.358,-45.715,46.570
0.739,-3.023,-0.008,-200.500,-221.008,26.001
0.741,-2.505,-0.525,-184.082,-270.081,-33.752
0.761,-2.334,-0.477,-101.563,-168.213,-89.722
0.820,-2.349,-0.247,19.775,13.611,-139.099
0.967,-2.007,-0.116,122.192,173.462,-177.917
1.001,-1.615,-0.122,177.429,256.042,-192.078
0.910,-1.346,-0.056,196.289,274.841,-184.875
0.877,-1.248,0.096,180.908,241.272,-169.189
0.868,-1.165,0.331,140.930,163.574,-148.926
0.758,-1.076,0.409,96.985,68.604,-123.230
0.840,-0.830,0.313,50.659,-14.526,-97.412
0.893,-0.679,0.132,9.766,-61.157,-69.763
0.855,-0.620,-0.068,-20.081,-70.068,-45.593
0.781,-0.691,-0.196,-26.123,-52.429,-30.884
0.834,-0.773,-0.147,-11.902,-25.757,-24.475
0.809,-0.793,-0.014,13.794,-8.545,-17.761
0.812,-0.760,0.118,37.964,-4.089,-7.996
0.869,-0.676,0.262,47.363,-8.484,-3.784
0.892,-0.660,0.385,42.480,-17.151,-2.014
0.878,-0.578,0.420,28.381,-24.902,1.953
0.855,-0.519,0.343,13.000,-21.301,7.568
0.908,-0.468,0.251,-1.343,-2.380,13.489
0.910,-0.481,0.172,-10.193,20.935,19.470
0.872,-0.476,0.123,-11.292,36.194,23.010
0.845,-0.450,0.071,-6.165,41.443,19.775
0.879,-0.438,0.050,1.892,38.330,14.832
0.915,-0.377,0.041,8.545,28.259,10.132
0.945,-0.379,0.042,13.000,15.686,10.315
0.966,-0.416,0.049,12.329,3.479,13.245
0.948,-0.448,0.037,9.521,-6.348,15.869
0.946,-0.438,0.044,8.667,-11.719,15.869
0.945,-0.423,0.062,8.240,-14.038,15.137
0.896,-0.416,0.135,7.263,-15.198,15.076
0.851,-0.379,0.143,4.883,-17.334,12.878
0.875,-0.344,0.146,-2.136,-17.578,8.728
0.897,-0.351,0.125,-11.108,-16.602,7.874
0.904,-0.372,0.083,-17.273,-14.099,10.498
0.915,-0.373,0.028,-19.775,-9.888,12.939
0.917,-0.401,-0.005,-18.127,-3.174,15.198
0.922,-0.387,-0.026,-13.306,6.042,14.648
0.944,-0.360,-0.026,-5.981,14.648,13.794
0.973,-0.350,-0.006,1.343,18.433,14.771
0.942,-0.382,0.047,7.324,16.296,17.090
0.907,-0.377,0.103,9.460,10.559,15.259
0.910,-0.361,0.148,6.714,2.930,10.254
0.927,-0.355,0.155,0.793,-4.822,8.057
0.914,-0.370,0.141,-5.798,-12.878,9.460
0.917,-0.364,0.097,-11.108,-17.944,9.338
0.921,-0.358,0.077,-13.428,-15.869,6.775
0.920,-0.376,0.077,-11.963,-10.498,4.395
0.912,-0.390,0.089,-6.958,-5.798,2.808
0.928,-0.393,0.111,-0.916,-0.488,2.197
0.945,-0.385,0.130,3.235,5.310,3.906
0.935,-0.362,0.120,4.517,8.667,6.165
0.920,-0.352,0.116,4.578,10.925,6.531
0.913,-0.377,0.127,4.822,11.902,4.761
0.914,-0.343,0.128,4.883,11.108,1.709
0.930,-0.337,0.127,1.526,7.690,0.549
0.912,-0.340,0.117,-3.967,0.488,-0.488
0.898,-0.347,0.109,-8.118,-6.775,-2.747
0.913,-0.351,0.113,-10.681,-12.939,-4.456
0.927,-0.363,0.121,-12.390,-19.409,-5.737
0.941,-0.373,0.128,-13.855,-25.269,-7.263
0.954,-0.378,0.122,-15.259,-30.273,-8.118
0.968,-0.373,0.106,-15.503,-33.020,-7.141
0.959,-0.374,0.092,-12.695,-31.616,-4.761
0.960,-0.364,0.083,-6.409,-23.437,-2.808
0.952,-0.367,0.108,1.709,-9.460,-1.221
0.945,-0.351,0.148,8.301,6.775,0.122
0.933,-0.325,0.170,10.193,18.799,0.610
0.910,-0.329,0.173,8.057,23.987,0.610
0.906,-0.338,0.167,5.005,22.095,-0.366
0.901,-0.340,0.160,2.563,15.320,-1.770
0.907,-0.347,0.155,0.366,7.263,-3.296
0.938,-0.359,0.152,-2.380,-0.488,-5.127
0.960,-0.368,0.153,-3.784,-5.615,-5.005
0.960,-0.364,0.153,-3.357,-6.897,-3.540
0.967,-0.369,0.147,-3.357,-5.127,-3.296
0.974,-0.391,0.145,-3.784,-1.770,-2.747
0.984,-0.401,0.127,-2.747,1.099,-0.549
0.981,-0.402,0.100,0.671,4.089,2.441
0.963,-0.399,0.099,3.967,8.667,4.089
0.946,-0.369,0.112,6.042,13.184,4.028
0.926,-0.334,0.116,6.653,15.015,3.052
0.912,-0.337,0.117,5.432,14.343,1.709
0.906,-0.358,0.111,2.991,11.108,0.793
0.904,-0.371,0.112,0.977,5.676,0.854
0.896,-0.366,0.106,0.549,0.000,1.099
0.902,-0.345,0.105,-0.427,-3.601,0.671
0.907,-0.349,0.107,-2.014,-5.371,0.122
0.905,-0.370,0.110,-1.892,-6.165,-0.061
0.916,-0.372,0.115,-0.244,-6.226,-0.427

0.866,1.243,0.583,11.658,-145.935,-75.378
0.936,1.574,0.706,19.043,-137.878,-86.792
0.972,1.891,0.852,22.400,-138.611,-99.182
0.992,2.215,1.029,20.203,-152.710,-110.229
1.028,2.413,1.197,15.015,-182.068,-121.460
1.025,2.583,1.276,0.610,-220.093,-140.930
0.989,2.744,1.252,-22.461,-255.737,-165.588
0.952,2.865,1.181,-44.189,-281.921,-181.885
0.903,2.965,1.084,-56.702,-299.133,-182.007
0.777,3.056,0.915,-60.486,-305.969,-165.344
0.548,3.049,0.678,-55.481,-297.974,-135.986
0.265,2.926,0.425,-43.396,-273.437,-105.591
-0.068,2.677,0.211,-24.048,-240.845,-85.449
-0.405,2.282,0.031,-0.305,-211.914,-75.684
-0.758,1.781,-0.120,23.987,-198.853,-76.233
-1.012,1.224,-0.202,49.377,-209.045,-87.158
-1.092,0.635,-0.173,71.228,-239.319,-106.689
-1.031,0.052,-0.061,81.726,-281.799,-122.620
-1.059,-0.519,-0.069,85.205,-321.716,-127.258
-0.911,-1.175,0.113,89.600,-324.707,-121.582
-0.505,-1.685,0.434,90.576,-280.518,-92.224
-0.369,-2.059,0.499,77.576,-218.628,-39.673
-0.495,-2.397,0.524,62.073,-161.682,10.681
-0.753,-2.606,0.656,56.763,-114.624,39.490
-1.024,-2.822,0.818,53.162,-81.238,35.583
-1.002,-2.907,1.074,40.161,-73.303,9.949
-1.142,-2.757,1.050,18.188,-104.980,-4.700
-1.208,-2.704,0.850,1.709,-153.931,-17.151
-1.099,-2.542,1.032,26.855,-180.603,-55.725
-0.933,-2.372,1.239,87.830,-187.073,-94.910
-0.689,-2.031,1.501,134.705,-171.631,-122.070
-0.377,-1.527,1.658,141.907,-131.958,-145.508
-0.124,-1.139,1.550,126.770,-83.740,-145.447
0.078,-0.954,1.400,88.989,-20.752,-114.990
0.161,-0.979,1.139,48.401,48.645,-76.294
0.135,-1.006,0.937,22.827,114.807,-48.889
0.152,-1.039,0.781,9.399,165.649,-30.151
0.199,-1.045,0.723,4.028,184.448,-16.785
0.201,-0.965,0.643,4.028,163.574,-9.949
0.208,-0.825,0.681,6.409,114.380,-9.583
0.151,-0.689,0.807,13.245,49.744,-13.428
-0.004,-0.581,0.887,17.883,-16.663,-15.381
-0.133,-0.480,0.939,12.878,-68.054,-18.738
-0.229,-0.407,0.950,7.446,-93.323,-26.306
-0.302,-0.399,0.962,5.859,-91.797,-31.128
-0.366,-0.384,0.936,2.808,-70.984,-27.466
-0.364,-0.366,0.887,-6.104,-35.278,-19.531
-0.315,-0.381,0.820,-14.648,0.610,-16.541
-0.296,-0.364,0.711,-18.311,26.367,-19.836
-0.271,-0.330,0.626,-17.517,40.771,-22.034
-0.203,-0.342,0.614,-14.526,43.457,-19.836
-0.142,-0.354,0.618,-10.376,29.602,-15.991
-0.123,-0.344,0.603,-4.822,3.113,-12.085
-0.129,-0.321,0.620,1.648,-23.315,-9.216
-0.122,-0.315,0.697,7.751,-40.527,-5.737
-0.131,-0.310,0.820,13.184,-47.729,-1.038
-0.199,-0.278,0.931,15.930,-45.532,4.333
-0.284,-0.273,1.002,13.733,-34.363,7.080
-0.320,-0.256,1.047,8.362,-14.526,4.700
-0.338,-0.278,1.076,3.174,6.653,1.648
-0.344,-0.279,1.081,-1.587,22.705,0.671
-0.323,-0.255,1.034,-4.456,29.297,-1.343
-0.279,-0.227,0.966,-6.531,27.954,-4.272
-0.219,-0.209,0.907,-9.766,22.949,-8.057
-0.168,-0.201,0.839,-9.766,15.930,-10.254
-0.122,-0.204,0.820,-5.920,10.742,-9.583
-0.111,-0.221,0.824,-1.343,8.179,-8.057
-0.119,-0.253,0.855,2.625,7.263,-7.446
-0.118,-0.271,0.913,5.920,7.996,-7.935
-0.107,-0.253,0.965,7.751,8.606,-5.859
-0.127,-0.245,0.993,8.606,9.094,-2.441
-0.151,-0.266,1.034,7.202,13.550,-0.916
-0.137,-0.256,1.074,2.563,20.630,0.488
-0.150,-0.243,1.051,-6.165,23.193,3.662
-0.183,-0.262,1.032,-15.869,21.301,4.883
-0.187,-0.266,0.991,-21.729,16.907,3.540
-0.190,-0.271,0.942,-23.499,10.559,1.648
-0.184,-0.270,0.903,-22.949,5.066,-0.732
-0.179,-0.268,0.859,-18.616,0.793,-3.235
-0.167,-0.264,0.847,-11.292,-1.648,-5.798
-0.165,-0.269,0.853,-1.892,-3.845,-8.667
-0.154,-0.284,0.882,6.897,-5.615,-10.864
-0.140,-0.308,0.929,12.268,-6.409,-12.329
-0.119,-0.316,0.993,12.817,-6.348,-11.108
-0.132,-0.303,1.005,8.545,-6.653,-6.287
-0.157,-0.302,1.005,1.892,-5.249,-2.563
-0.182,-0.319,1.009,-2.808,-1.648,-2.014
-0.192,-0.319,1.002,-4.883,1.160,-3.052
-0.175,-0.302,0.980,-5.615,0.732,-3.784
-0.162,-0.301,0.956,-6.470,-2.625,-3.235
-0.155,-0.289,0.928,-6.897,-6.409,-2.808
-0.149,-0.282,0.903,-6.531,-8.179,-2.747
-0.148,-0.290,0.907,-4.944,-8.606,-2.197
-0.155,-0.280,0.923,-1.648,-9.521,-1.709
-0.161,-0.262,0.935,2.441,-11.108,-2.319
-0.175,-0.268,0.951,4.395,-12.817,-2.563
-0.182,-0.269,0.970,5.310,-15.076,-2.747
-0.176,-0.256,0.987,6.714,-16.724,-2.808
-0.189,-0.251,1.000,6.470,-17.334,-1.526
-0.211,-0.247,1.003,4.395,-17.090,0.366
-0.229,-0.225,0.992,2.441,-15.320,1.709
-0.248,-0.220,0.979,0.488,-12.085,2.991
-0.253,-0.233,0.975,-2.014,-8.667,3.418
-0.263,-0.232,0.967,-4.944,-6.775,3.052
-0.272,-0.233,0.948,-7.324,-5.859,2.075
-0.262,-0.234,0.918,-8.362,-4.883,1.221
-0.244,-0.227,0.908,-6.592,-3.723,0.244
-0.232,-0.221,0.914,-3.723,-2.136,-0.427
-0.210,-0.213,0.926,-1.953,0.000,-0.366
-0.184,-0.214,0.931,-2.319,2.563,0.793
-0.169,-0.223,0.927,-3.906,5.920,3.479
-0.174,-0.229,0.911,-5.615,10.864,6.348
-0.175,-0.234,0.899,-6.348,17.456,8.545
-0.167,-0.241,0.901,-5.798,24.048,10.376
-0.171,-0.250,0.911,-3.906,28.625,11.047
-0.167,-0.264,0.933,-3.479,30.823,10.498
-0.161,-0.254,0.952,-2.625,29.907,8.728
-0.156,-0.248,0.955,-1.770,25.024,8.118
-0.151,-0.247,0.952,-3.296,18.616,8.545

-0.131,-0.993,0.979,91.064,-28.748,-81.360
-0.022,-0.925,1.112,105.225,-27.344,-84.473
0.071,-0.884,1.192,102.112,-26.550,-76.233
0.159,-0.788,1.262,83.252,-21.118,-63.049
0.207,-0.688,1.286,57.251,-10.498,-45.105
0.185,-0.627,1.240,30.457,1.709,-26.855
0.134,-0.596,1.196,8.179,16.785,-15.381
0.108,-0.506,1.142,-5.432,30.273,-14.038
0.087,-0.417,1.073,-9.583,40.344,-15.808
0.101,-0.383,1.003,-9.155,44.739,-14.709
0.097,-0.362,0.961,-7.935,43.213,-12.817
0.084,-0.339,0.943,-3.967,38.330,-12.146
0.092,-0.321,0.927,0.244,32.349,-12.146
0.106,-0.280,0.919,2.747,24.780,-11.902
0.096,-0.248,0.907,4.639,16.418,-11.292
0.077,-0.252,0.907,8.057,9.766,-11.475
0.067,-0.278,0.937,11.597,6.531,-12.146
0.065,-0.279,0.968,12.390,5.188,-9.949
0.086,-0.301,1.011,8.728,2.502,-3.601
0.087,-0.257,1.020,0.244,-4.272,4.089
0.050,-0.247,1.001,-10.132,-15.015,12.756
0.026,-0.232,0.986,-18.738,-25.452,16.724
-0.001,-0.207,0.963,-22.827,-32.227,16.235
-0.021,-0.196,0.937,-22.766,-34.729,16.663
-0.034,-0.173,0.922,-20.874,-32.959,18.066
-0.062,-0.151,0.908,-16.235,-27.527,17.761
-0.075,-0.130,0.910,-9.766,-19.287,14.771
-0.069,-0.123,0.914,-3.723,-10.925,10.071
-0.064,-0.111,0.931,1.587,-5.676,5.188
-0.052,-0.101,0.952,5.554,-3.174,2.808
-0.038,-0.117,0.988,8.362,-3.357,1.526
-0.008,-0.121,1.036,8.118,-5.859,1.343
0.003,-0.107,1.056,4.089,-8.972,4.211
-0.002,-0.104,1.052,-1.343,-10.132,7.141
-0.023,-0.105,1.030,-5.554,-7.202,7.812
-0.029,-0.105,1.009,-8.606,-1.404,6.165
-0.014,-0.106,0.989,-10.803,5.920,4.028
0.005,-0.124,0.960,-12.451,12.451,2.747
0.018,-0.118,0.933,-12.878,15.747,1.709
0.021,-0.107,0.921,-11.169,15.564,0.549
0.022,-0.113,0.918,-7.690,11.230,-1.038
0.025,-0.120,0.922,-3.418,3.540,-2.319
0.024,-0.125,0.932,1.831,-4.761,-3.906
0.033,-0.117,0.950,7.202,-11.658,-6.409
0.042,-0.119,0.964,10.254,-16.296,-8.057
0.047,-0.144,0.995,10.681,-18.494,-7.935
0.049,-0.156,1.019,8.545,-18.799,-6.226
0.041,-0.155,1.032,3.784,-18.066,-3.113
0.029,-0.167,1.030,-0.977,-17.334,0.000
0.013,-0.157,1.019,-4.944,-15.076,1.953
0.000,-0.142,1.013,-7.812,-10.986,2.563
-0.010,-0.139,1.007,-9.766,-6.287,2.441
-0.029,-0.134,0.996,-10.620,-2.380,1.465
-0.046,-0.137,0.978,-11.902,0.549,0.427
-0.049,-0.136,0.948,-11.841,1.953,-0.854
-0.037,-0.125,0.913,-9.827,2.136,-2.808
-0.026,-0.127,0.889,-6.592,1.892,-5.310
-0.011,-0.135,0.882,-2.258,1.343,-7.751
0.005,-0.136,0.892,3.052,0.244,-9.521
0.019,-0.130,0.916,7.568,-1.099,-9.583
0.027,-0.127,0.946,11.230,-3.418,-7.935
0.029,-0.136,0.978,12.573,-6.653,-5.432
0.021,-0.144,1.013,11.719,-9.766,-2.747
0.000,-0.139,1.042,8.728,-12.573,0.488
-0.015,-0.132,1.052,4.089,-14.893,3.418
-0.022,-0.130,1.042,-2.014,-15.137,3.967
-0.021,-0.127,1.025,-5.798,-13.733,2.686
-0.015,-0.129,1.014,-5.676,-10.498,1.160
-0.009,-0.129,1.009,-3.174,-6.348,0.183
-0.000,-0.125,1.005,-0.671,-1.587,-1.099
0.003,-0.128,1.004,0.732,3.601,-2.258
0.005,-0.136,1.000,0.854,8.606,-2.625
0.015,-0.142,0.991,1.099,11.719,-2.808
0.012,-0.147,0.984,1.892,13.062,-3.113
0.007,-0.151,0.972,3.418,13.306,-3.113
0.014,-0.154,0.967,4.456,13.611,-2.869
0.022,-0.150,0.958,3.174,14.099,-1.953
0.026,-0.155,0.952,1.404,13.062,-0.305
0.031,-0.156,0.945,-0.427,10.254,1.648
0.034,-0.153,0.944,-0.916,6.836,4.089
0.028,-0.144,0.954,-0.854,3.479,6.409
0.013,-0.132,0.961,-0.549,-0.061,7.935
-0.010,-0.140,0.973,-0.061,-2.686,8.789
-0.028,-0.146,0.974,0.061,-4.578,8.545
-0.043,-0.138,0.961,-0.122,-5.249,7.385
-0.043,-0.137,0.942,-0.427,-3.479,5.432
-0.030,-0.142,0.932,-0.732,0.854,3.540
-0.020,-0.141,0.929,0.427,6.470,2.258
-0.007,-0.148,0.942,2.747,10.742,1.587
0.007,-0.153,0.955,4.700,11.597,0.977
0.021,-0.155,0.969,5.371,9.399,0.427
0.036,-0.163,0.981,5.554,5.554,-0.061
0.045,-0.176,0.985,5.066,0.549,0.061
0.052,-0.179,0.992,4.517,-2.747,1.526
0.055,-0.175,0.996,3.601,-4.028,3.540
0.049,-0.172,0.999,1.953,-3.784,5.432
0.038,-0.176,0.995,0.061,-2.502,7.141
0.038,-0.184,0.990,-1.831,-1.465,8.545
0.034,-0.197,0.993,-2.319,0.244,9.888
0.024,-0.206,1.001,-1.099,3.052,10.498
0.023,-0.203,1.015,0.549,7.812,11.047
0.025,-0.202,1.028,1.892,13.184,11.597
0.021,-0.212,1.041,2.747,18.494,12.817
0.025,-0.216,1.051,3.906,23.132,14.099
0.043,-0.209,1.060,4.761,26.428,14.893
0.050,-0.219,1.064,4.028,28.259,16.479
0.050,-0.238,1.062,0.977,28.015,18.616
0.053,-0.254,1.059,-1.892,26.733,20.447
0.060,-0.271,1.050,-3.784,25.085,21.973
0.062,-0.302,1.025,-5.188,23.621,23.315
0.073,-0.318,1.000,-7.202,25.635,25.208
0.099,-0.290,0.971,-9.705,31.921,27.527
0.111,-0.254,0.936,-12.878,39.429,30.823
0.113,-0.223,0.910,-15.991,46.021,34.851
0.100,-0.208,0.903,-17.334,47.974,38.757
0.082,-0.204,0.917,-16.724,42.725,42.114
0.056,-0.203,0.944,-15.442,30.273,44.983
0.030,-0.191,0.958,-16.235,14.709,46.997
0.022,-0.128,0.963,-19.226,-0.183,46.753

0.392,0.310,1.427,-17.578,17.212,-6.348
0.414,0.341,1.452,-24.292,21.790,-3.418
0.447,0.376,1.473,-32.471,25.696,0.488
0.451,0.406,1.499,-41.626,27.405,2.808
0.450,0.443,1.513,-50.232,28.503,5.188
0.452,0.447,1.527,-56.824,29.907,7.629
0.461,0.531,1.493,-61.218,32.288,7.629
0.457,0.570,1.473,-65.063,36.621,8.606
0.427,0.626,1.455,-69.336,41.443,9.094
0.383,0.711,1.353,-72.449,44.006,8.118
0.308,0.773,1.266,-72.876,46.021,5.005
0.252,0.833,1.186,-69.763,47.607,-0.977
0.218,0.886,1.124,-62.317,46.448,-6.409
0.207,0.911,1.096,-54.199,40.955,-8.545
0.230,0.985,1.075,-49.316,32.593,-10.071
0.239,1.061,1.070,-48.828,28.381,-10.071
0.251,1.112,1.012,-53.528,30.945,-8.240
0.236,1.072,0.959,-59.937,39.856,-5.737
0.173,0.944,0.979,-61.218,50.964,-6.592
0.224,0.910,0.980,-57.190,56.396,-12.451
0.269,0.888,0.941,-50.903,52.612,-16.479
0.284,0.877,0.930,-46.265,43.030,-18.311
0.259,0.814,0.877,-42.969,34.607,-20.630
0.323,0.812,0.907,-39.063,32.593,-26.062
0.285,0.854,0.862,-32.288,33.203,-31.006
0.350,0.755,0.852,-26.428,38.269,-28.564
0.373,0.771,0.827,-19.897,37.781,-32.654
0.405,0.685,0.810,-13.123,33.020,-35.522
0.432,0.621,0.826,-7.751,25.146,-38.208
0.345,0.592,0.843,-7.996,20.325,-41.931
0.299,0.546,0.889,-15.198,22.705,-42.847
0.221,0.432,0.875,-26.062,24.231,-43.457
0.130,0.380,0.873,-39.978,20.996,-50.598
0.060,0.351,0.841,-56.519,12.329,-57.678
-0.016,0.254,0.784,-72.937,-1.953,-56.274
-0.100,0.162,0.687,-86.731,-18.860,-53.528
-0.129,0.044,0.606,-91.980,-32.593,-54.810
-0.114,-0.138,0.508,-85.266,-41.504,-61.523
-0.108,-0.259,0.433,-64.026,-44.800,-74.463
-0.063,-0.304,0.411,-33.386,-37.964,-85.266
-0.033,-0.320,0.390,-0.488,-22.034,-88.135
-0.068,-0.363,0.418,28.687,1.770,-83.801
-0.180,-0.437,0.602,49.194,31.494,-75.562
-0.171,-0.467,0.775,52.307,51.514,-70.496
-0.160,-0.452,0.931,32.532,52.002,-68.420
-0.183,-0.391,1.001,-3.967,32.532,-62.378
-0.140,-0.360,0.938,-49.561,-0.488,-50.415
-0.161,-0.442,0.794,-90.515,-38.635,-37.659
-0.139,-0.601,0.633,-108.276,-72.388,-28.442
-0.119,-0.528,0.476,-92.407,-91.736,-26.733
0.045,-0.542,0.535,-44.739,-93.384,-20.447
-0.043,-0.531,0.452,23.071,-91.003,-18.372
-0.015,-0.586,0.511,94.849,-76.294,-9.216
-0.030,-0.770,0.659,155.212,-45.959,-0.244
-0.192,-0.836,0.867,194.397,-10.681,-8.301
-0.191,-0.744,1.262,202.515,26.428,-26.123
-0.016,-0.548,1.530,178.711,46.021,-50.171
0.167,-0.428,1.678,131.592,40.344,-67.810
0.320,-0.375,1.586,63.477,11.169,-73.425
0.448,-0.317,1.419,-6.226,-24.536,-68.298
0.486,-0.351,1.255,-48.706,-48.157,-56.030
0.494,-0.325,1.039,-60.547,-51.025,-43.884
0.474,-0.185,0.805,-55.542,-28.259,-32.532
0.505,-0.208,0.674,-41.016,16.235,-18.372
0.488,-0.147,0.598,-19.653,64.331,-12.817
0.493,-0.104,0.665,2.930,101.257,-6.531
0.462,-0.152,0.766,24.475,112.732,-1.709
0.449,-0.065,0.836,36.499,98.755,-5.859
0.451,-0.011,0.848,36.011,74.097,-8.972
0.436,-0.022,0.886,28.809,48.462,-6.653
0.404,-0.022,0.875,18.921,24.353,-2.747
0.386,0.006,0.868,7.446,5.310,4.700
0.355,0.016,0.890,-1.831,-4.761,14.587
0.301,0.001,0.890,-6.897,-10.742,23.254
0.285,0.022,0.893,-11.658,-11.597,29.053
0.282,0.036,0.875,-15.503,-6.592,33.386
0.263,0.019,0.874,-17.822,1.221,37.537
0.250,0.013,0.859,-16.052,7.324,39.001
0.294,0.032,0.825,-11.719,10.986,37.598
0.341,0.075,0.807,-6.836,13.367,34.363
0.369,0.047,0.815,-2.136,14.587,30.823
0.411,-0.012,0.812,1.587,12.878,28.076
0.454,-0.048,0.833,6.226,9.827,26.978
0.481,-0.078,0.860,10.254,9.155,28.015
0.496,-0.088,0.867,12.756,11.230,28.931
0.494,-0.076,0.858,12.451,17.517,31.677
0.492,-0.068,0.877,10.193,28.870,36.499
0.448,-0.051,0.886,7.996,37.537,40.405
0.448,-0.032,0.873,5.005,40.649,43.884
0.443,-0.022,0.857,2.991,40.100,47.119
0.425,-0.020,0.843,2.441,37.231,48.767
0.400,-0.038,0.827,2.869,31.799,50.415
0.381,-0.057,0.809,5.127,25.940,50.903
0.381,-0.051,0.792,9.338,21.057,48.828
0.366,-0.073,0.779,15.076,15.991,46.204
0.358,-0.089,0.765,20.874,10.986,44.556
0.359,-0.050,0.766,26.794,8.240,44.067
0.356,-0.020,0.771,32.471,10.254,44.861
0.365,-0.002,0.779,36.377,14.038,44.434
0.378,-0.023,0.806,36.316,15.320,45.166
0.396,0.006,0.863,32.166,14.038,50.354
0.378,0.021,0.880,25.513,9.033,59.326
0.325,-0.050,0.889,16.418,1.282,66.711
0.282,-0.098,0.892,4.822,-8.057,69.275
0.260,-0.068,0.860,-2.625,-17.639,66.833
0.251,-0.039,0.808,-4.272,-24.597,62.622
0.253,0.001,0.757,-2.869,-27.527,58.411
0.250,0.099,0.718,0.916,-24.536,52.979
0.250,0.117,0.696,8.789,-19.470,45.593
0.258,0.047,0.722,15.076,-16.968,38.940
0.276,0.045,0.779,18.127,-18.555,34.302
0.298,0.079,0.828,19.836,-24.292,32.104
0.307,0.032,0.863,16.846,-31.494,33.203
0.322,0.037,0.887,8.240,-37.720,37.354
0.368,0.103,0.921,1.404,-40.161,42.786
0.343,0.129,0.895,-2.075,-38.940,47.424
0.293,0.102,0.900,-4.333,-32.959,50.598
0.273,0.106,0.894,-4.089,-22.339,50.842
0.276,0.143,0.880,-1.953,-7.263,48.401

0.565,0.826,0.769,41.748,-30.518,-20.874
0.575,0.865,0.789,42.114,-39.856,-12.939
0.559,0.910,0.787,38.879,-43.457,-2.075
0.531,0.946,0.763,34.851,-39.185,9.216
0.499,0.994,0.743,31.189,-27.527,20.813
0.438,1.042,0.711,28.748,-12.634,30.823
0.398,1.084,0.660,27.161,0.977,41.016
0.365,1.098,0.615,28.198,12.878,47.913
0.349,1.115,0.595,34.058,22.705,50.110
0.372,1.158,0.580,44.434,27.161,50.354
0.429,1.161,0.597,54.016,24.414,51.086
0.465,1.187,0.642,61.157,15.015,51.880
0.478,1.172,0.660,67.200,-0.488,52.673
0.485,1.148,0.688,71.899,-16.113,51.025
0.486,1.130,0.725,77.637,-29.785,44.312
0.492,1.149,0.774,84.045,-41.565,35.400
0.512,1.161,0.805,86.304,-51.941,30.823
0.487,1.161,0.794,85.266,-62.317,29.358
0.421,1.154,0.774,82.825,-71.350,25.818
0.328,1.050,0.719,81.726,-79.590,19.104
0.217,0.931,0.656,84.656,-85.938,7.324
0.165,0.796,0.607,92.773,-89.111,-8.606
0.141,0.608,0.522,102.783,-89.050,-28.259
0.102,0.417,0.477,114.685,-85.327,-49.316
0.173,0.167,0.520,131.592,-82.275,-67.383
0.367,0.037,0.673,145.508,-82.581,-71.655
0.349,-0.021,0.725,151.062,-87.830,-56.763
0.265,-0.103,0.745,148.132,-88.928,-35.217
0.186,-0.173,0.827,135.376,-79.102,-20.691
0.100,-0.243,0.859,114.685,-67.871,-13.489
-0.015,-0.303,0.813,83.313,-60.913,-10.376
-0.142,-0.398,0.736,46.265,-55.298,-10.437
-0.259,-0.504,0.630,17.944,-53.955,-13.672
-0.318,-0.615,0.475,4.578,-58.472,-21.362
-0.357,-0.720,0.325,9.705,-67.810,-32.959
-0.384,-0.881,0.272,30.701,-75.073,-46.692
-0.374,-0.986,0.383,62.927,-76.538,-62.744
-0.314,-1.070,0.528,93.018,-81.299,-70.007
-0.319,-1.114,0.576,108.337,-93.628,-67.810
-0.392,-1.076,0.618,104.797,-101.135,-62.866
-0.428,-1.143,0.702,94.910,-101.868,-49.377
-0.448,-1.242,0.824,83.923,-97.046,-42.664
-0.475,-1.266,0.879,78.064,-92.102,-48.889
-0.507,-1.180,0.917,73.120,-78.125,-60.852
-0.409,-1.127,0.891,65.063,-54.626,-67.261
-0.321,-1.134,0.900,60.364,-30.579,-71.655
-0.240,-1.137,0.915,59.814,-13.306,-77.515
-0.151,-1.099,0.981,61.829,-2.625,-79.773
-0.084,-1.037,1.049,66.101,0.916,-74.829
0.009,-0.957,1.100,67.871,-0.305,-66.101
0.058,-0.851,1.126,62.805,-0.427,-56.213
0.049,-0.774,1.128,52.002,3.906,-44.861
0.032,-0.728,1.106,36.987,11.902,-35.583
0.021,-0.648,1.106,21.729,21.240,-29.968
0.009,-0.614,1.096,12.878,25.940,-24.719
-0.009,-0.607,1.090,10.376,22.705,-18.433
-0.060,-0.570,1.078,9.644,13.855,-12.451
-0.100,-0.540,1.094,9.216,5.920,-7.812
-0.145,-0.519,1.100,8.850,0.000,-7.324
-0.175,-0.485,1.073,6.470,-3.967,-9.521
-0.177,-0.431,1.034,1.648,-4.089,-11.658
-0.165,-0.426,1.013,-2.075,-1.099,-13.062
-0.134,-0.449,1.000,-5.005,0.610,-12.817
-0.079,-0.470,0.999,-8.301,-1.404,-8.911
-0.052,-0.438,1.014,-10.132,-7.812,-1.282
-0.052,-0.440,1.006,-10.071,-16.907,7.141
-0.066,-0.414,1.006,-10.132,-22.583,10.803
-0.070,-0.400,1.006,-10.376,-22.400,10.376
-0.068,-0.419,0.990,-11.047,-17.212,10.193
-0.041,-0.373,0.971,-10.986,-8.179,9.399
-0.020,-0.348,0.943,-9.277,2.686,8.789
-0.011,-0.351,0.913,-6.714,14.160,9.216
-0.006,-0.360,0.892,-4.761,23.621,10.132
0.002,-0.343,0.892,-1.282,31.372,10.620
-0.010,-0.359,0.921,3.540,36.987,11.169
-0.005,-0.372,0.955,6.287,37.292,10.620
-0.006,-0.365,0.989,6.287,33.142,9.460
-0.002,-0.340,1.003,4.700,27.527,9.094
0.000,-0.342,1.017,2.380,22.034,9.521
-0.012,-0.377,1.026,-0.793,16.052,9.949
-0.020,-0.391,1.037,-4.700,10.254,9.277
-0.022,-0.386,1.033,-7.019,5.310,8.484
-0.019,-0.362,1.017,-7.568,3.174,8.057
-0.022,-0.346,0.995,-7.019,5.127,8.911
-0.019,-0.349,0.980,-6.287,10.376,11.597
-0.025,-0.360,0.970,-4.944,18.433,14.648
-0.034,-0.371,0.964,-4.700,27.832,16.663
-0.036,-0.392,0.972,-3.845,36.377,16.968
-0.033,-0.429,0.990,-2.991,41.199,17.212
-0.031,-0.459,1.001,-2.991,40.039,17.029
-0.036,-0.482,0.999,-3.662,33.752,15.686
-0.038,-0.508,1.002,-3.845,23.987,13.306
-0.006,-0.496,1.026,-5.066,13.062,12.451
0.018,-0.438,1.048,-8.911,3.235,17.639
0.010,-0.429,1.042,-15.442,-3.174,28.442
-0.030,-0.429,1.017,-26.062,-2.808,37.659
-0.067,-0.447,1.002,-35.828,5.981,40.283
-0.075,-0.479,1.000,-40.833,19.714,37.903
-0.045,-0.481,0.977,-41.443,31.494,34.180
-0.014,-0.481,0.939,-37.781,37.537,32.043
0.012,-0.464,0.913,-33.752,38.330,32.104
0.034,-0.400,0.907,-30.090,35.522,33.203
0.033,-0.372,0.907,-25.085,29.236,34.546
0.001,-0.419,0.929,-21.545,21.851,35.095
-0.010,-0.402,0.956,-21.057,15.381,32.654
-0.001,-0.337,0.995,-18.921,11.108,28.076
0.000,-0.339,1.011,-16.968,8.484,24.048
-0.003,-0.364,1.018,-20.996,5.859,20.813
0.011,-0.341,1.013,-29.785,2.441,18.250
0.016,-0.336,0.986,-36.377,-1.831,18.066
0.016,-0.358,0.950,-39.551,-5.432,18.799
0.031,-0.331,0.925,-40.161,-7.507,18.555
0.048,-0.320,0.906,-36.621,-8.667,18.311
0.061,-0.321,0.900,-31.372,-7.324,18.433
0.072,-0.297,0.895,-26.978,-2.563,18.494
0.096,-0.254,0.902,-23.682,4.700,18.860
0.106,-0.221,0.918,-21.057,12.451,19.592
0.079,-0.234,0.918,-18.616,17.517,21.179
0.069,-0.231,0.919,-18.738,20.020,21.240

-0.082,-0.948,1.119,19.287,5.371,14.099
-0.112,-0.937,1.034,12.634,-30.579,0.732
-0.015,-0.914,0.963,10.986,-60.242,-13.367
0.117,-0.807,0.914,20.386,-75.500,-27.954
0.212,-0.751,0.884,39.795,-74.463,-36.621
0.280,-0.727,0.882,60.425,-56.519,-39.185
0.291,-0.698,0.909,72.937,-27.222,-42.053
0.309,-0.667,0.987,74.158,5.981,-46.997
0.360,-0.596,1.071,63.171,33.203,-52.979
0.404,-0.534,1.128,49.500,46.204,-56.519
0.435,-0.511,1.151,38.269,44.922,-55.359
0.428,-0.461,1.127,29.053,33.813,-51.941
0.417,-0.378,1.045,21.118,20.935,-48.767
0.436,-0.363,0.963,16.479,13.245,-45.410
0.465,-0.404,0.946,16.235,10.925,-42.358
0.501,-0.416,0.943,20.935,9.338,-39.185
0.501,-0.423,0.972,26.550,6.348,-31.189
0.489,-0.414,1.001,28.198,-0.793,-18.311
0.422,-0.363,1.004,24.902,-9.399,-5.493
0.332,-0.320,1.028,16.724,-15.503,4.150
0.246,-0.318,1.068,6.165,-20.447,10.132
0.178,-0.290,1.075,-3.601,-26.550,12.329
0.127,-0.286,1.051,-10.803,-32.410,12.695
0.107,-0.273,0.997,-16.663,-34.607,10.986
0.087,-0.272,0.927,-20.020,-32.471,8.118
0.085,-0.245,0.885,-20.264,-27.527,4.883
0.108,-0.247,0.856,-16.479,-22.766,2.197
0.131,-0.252,0.857,-9.888,-20.813,0.488
0.155,-0.235,0.876,-3.052,-22.827,0.183
0.173,-0.230,0.899,2.319,-27.649,1.099
0.165,-0.238,0.930,5.005,-32.898,2.502
0.170,-0.244,0.968,5.493,-36.255,5.676
0.171,-0.232,0.985,4.761,-36.804,9.338
0.158,-0.222,0.987,2.930,-34.729,11.597
0.145,-0.218,0.989,0.671,-29.541,11.719
0.126,-0.211,0.987,-1.343,-21.851,10.010
0.118,-0.184,0.985,-3.174,-12.268,7.629
0.111,-0.176,0.972,-6.287,-3.845,6.592
0.103,-0.174,0.954,-9.399,1.831,5.493
0.101,-0.174,0.933,-10.254,4.944,2.747
0.119,-0.192,0.911,-9.155,5.676,-0.671
0.151,-0.186,0.890,-7.385,3.906,-2.625
0.178,-0.167,0.872,-3.662,1.892,-2.869
0.193,-0.169,0.873,1.038,1.892,-2.747
0.198,-0.186,0.892,4.700,1.648,-3.174
0.205,-0.211,0.926,6.531,-0.244,-4.272
0.228,-0.218,0.952,6.104,-4.272,-4.089
0.251,-0.209,0.946,3.174,-10.315,-2.136
0.245,-0.208,0.929,-0.183,-15.259,0.671
0.231,-0.225,0.927,-2.686,-15.625,2.869
0.213,-0.240,0.942,-2.869,-13.550,3.113
0.207,-0.241,0.960,-2.563,-10.376,2.686
0.203,-0.240,0.967,-2.380,-8.118,2.441
0.203,-0.232,0.959,-2.075,-6.470,2.319
0.200,-0.223,0.951,-1.038,-4.578,2.136
0.195,-0.229,0.954,0.061,-1.587,2.441
0.185,-0.240,0.965,1.526,1.892,2.136
0.174,-0.241,0.988,3.113,4.578,0.732
0.183,-0.246,0.999,3.418,4.761,-0.916
0.198,-0.241,0.990,2.686,2.686,-1.221
0.200,-0.237,0.985,1.831,-0.061,0.793
0.202,-0.235,0.985,0.854,-1.648,5.127
0.199,-0.223,0.980,0.427,-1.526,9.827
0.184,-0.219,0.981,-0.732,-0.183,13.306
0.175,-0.228,0.991,-3.113,1.526,15.015
0.162,-0.250,1.002,-4.700,1.709,15.808
0.155,-0.264,1.001,-5.554,0.549,16.541
0.162,-0.242,0.990,-5.737,-0.122,17.212
0.160,-0.228,0.981,-5.676,-0.244,18.738
0.157,-0.222,0.975,-6.836,0.366,20.630
0.147,-0.203,0.970,-8.423,1.282,20.996
0.143,-0.200,0.971,-9.155,2.014,20.630
0.143,-0.210,0.971,-9.766,1.526,20.508
0.141,-0.213,0.964,-10.620,-0.061,20.813
0.143,-0.200,0.953,-10.376,-1.465,20.508
0.147,-0.201,0.941,-9.644,-1.892,20.264
0.149,-0.219,0.935,-8.728,-1.282,19.958
0.158,-0.221,0.935,-6.836,0.549,18.982
0.170,-0.211,0.935,-4.944,2.869,17.883
0.177,-0.216,0.937,-3.479,4.456,17.517
0.183,-0.234,0.940,-1.709,4.944,17.517
0.200,-0.257,0.955,0.000,5.005,17.151
0.240,-0.256,0.969,1.221,4.150,17.456
0.258,-0.262,0.968,0.610,2.380,20.020
0.270,-0.284,0.966,-2.747,0.793,23.254
0.277,-0.295,0.961,-6.470,0.183,26.245
0.275,-0.297,0.956,-9.216,0.427,28.931
0.261,-0.300,0.957,-9.949,1.587,31.738
0.246,-0.311,0.977,-8.972,3.174,33.997
0.215,-0.330,0.999,-6.165,3.479,35.278
0.198,-0.331,1.011,-3.967,2.197,35.217
0.189,-0.318,1.010,-2.869,0.183,34.180
0.189,-0.295,0.993,-3.723,-1.709,33.264
0.181,-0.280,0.978,-5.127,-3.052,32.654
0.167,-0.280,0.958,-5.127,-4.822,32.166
0.144,-0.289,0.944,-3.113,-7.324,30.090
0.145,-0.284,0.942,0.427,-9.216,26.672
0.162,-0.256,0.938,3.357,-10.742,23.437
0.173,-0.245,0.927,4.150,-12.207,21.973
0.182,-0.257,0.930,2.930,-13.611,21.790
0.199,-0.258,0.937,0.977,-15.137,23.071
0.210,-0.261,0.932,-1.953,-18.250,25.391
0.209,-0.276,0.927,-6.165,-21.667,29.053
0.208,-0.297,0.932,-9.338,-24.170,33.081
0.203,-0.298,0.935,-10.742,-24.841,36.926
0.190,-0.258,0.936,-10.803,-23.193,40.039
0.176,-0.221,0.934,-8.423,-18.921,41.260
0.148,-0.216,0.938,-5.005,-12.878,40.405
0.133,-0.216,0.958,-2.686,-7.141,37.659
0.138,-0.199,0.974,-1.343,-4.150,33.936
0.139,-0.208,0.969,-1.709,-4.456,31.006
0.139,-0.236,0.967,-3.662,-7.019,28.564
0.164,-0.228,0.972,-6.653,-10.071,26.550
0.187,-0.211,0.958,-10.132,-12.512,26.978
0.201,-0.203,0.939,-13.794,-13.916,30.518
0.211,-0.177,0.947,-16.418,-13.306,35.339
0.198,-0.157,0.956,-16.357,-12.024,40.466
0.170,-0.163,0.951,-16.296,-9.277,44.617
0.150,-0.177,0.958,-17.151,-5.737,46.265

0.550,0.596,0.935,-16.479,55.908,-36.255
0.667,0.552,0.920,-15.808,59.814,-31.372
0.716,0.668,0.908,-15.076,60.730,-30.212
0.782,0.730,0.865,-15.686,57.739,-22.888
0.811,0.759,0.831,-19.043,52.002,-12.329
0.856,0.772,0.824,-21.851,51.270,-2.991
0.852,0.831,0.834,-19.470,51.025,1.892
0.843,0.882,0.871,-14.954,52.307,4.456
0.851,0.910,0.932,-10.803,53.284,6.653
0.851,0.938,1.022,-10.193,51.819,7.080
0.814,0.942,1.112,-12.634,50.171,7.874
0.852,0.933,1.191,-18.188,45.837,11.108
0.922,0.956,1.234,-27.466,38.574,18.250
0.942,1.024,1.278,-36.926,31.067,27.954
0.971,1.090,1.272,-46.753,26.245,39.246
1.044,1.114,1.280,-57.312,26.062,51.941
1.092,1.158,1.250,-66.467,29.724,62.866
1.133,1.205,1.203,-71.594,37.903,71.045
1.143,1.254,1.138,-73.120,49.194,77.820
1.094,1.317,1.055,-71.960,60.669,84.717
1.001,1.347,0.997,-67.200,70.862,91.125
0.900,1.353,0.925,-59.692,76.111,94.177
0.782,1.392,0.881,-49.438,73.059,91.919
0.730,1.431,0.831,-37.476,59.875,85.266
0.675,1.471,0.770,-25.635,38.391,73.792
0.610,1.476,0.741,-16.113,13.367,59.143
0.552,1.499,0.717,-8.057,-12.512,44.006
0.523,1.561,0.707,-2.747,-37.720,30.762
0.464,1.640,0.719,0.244,-60.303,19.836
0.497,1.695,0.763,-0.671,-78.857,13.855
0.485,1.702,0.796,-9.399,-91.248,15.625
0.375,1.610,0.788,-27.039,-94.543,22.156
0.240,1.471,0.755,-50.537,-85.754,24.841
0.079,1.276,0.689,-73.364,-65.002,19.958
-0.050,1.046,0.586,-93.872,-36.804,7.141
-0.078,0.774,0.453,-106.079,-6.897,-11.475
-0.096,0.511,0.318,-105.164,19.958,-35.095
-0.140,0.249,0.245,-90.637,39.368,-57.007
-0.173,0.062,0.153,-65.186,48.706,-75.317
-0.179,-0.142,0.156,-25.513,50.476,-91.675
-0.158,-0.317,0.211,17.151,44.495,-106.079
-0.097,-0.425,0.371,46.448,31.982,-111.572
-0.062,-0.484,0.553,52.856,10.132,-99.915
-0.147,-0.661,0.699,38.452,-26.001,-70.313
-0.309,-0.854,0.758,7.751,-72.205,-40.466
-0.408,-0.981,0.749,-29.846,-115.295,-26.306
-0.448,-1.075,0.631,-58.472,-144.836,-27.039
-0.414,-1.250,0.500,-65.063,-156.189,-39.917
-0.314,-1.422,0.394,-47.668,-144.958,-65.796
-0.094,-1.488,0.411,-12.085,-113.892,-95.520
0.115,-1.359,0.384,37.170,-72.510,-114.746
0.265,-1.101,0.423,91.431,-22.217,-112.488
0.390,-0.964,0.490,135.986,29.602,-93.628
0.418,-0.878,0.675,165.161,69.946,-68.848
0.314,-0.946,0.963,182.068,78.491,-44.861
0.300,-0.966,1.342,179.871,47.852,-34.485
0.459,-0.873,1.625,151.306,-18.799,-45.105
0.580,-0.582,1.704,96.619,-97.473,-69.641
0.701,-0.290,1.473,30.029,-153.931,-88.562
0.744,-0.117,1.146,-30.457,-157.654,-87.524
0.773,-0.240,0.914,-69.458,-107.483,-70.435
0.825,-0.365,0.800,-80.566,-26.672,-57.800
0.697,-0.189,0.563,-63.904,53.101,-47.302
0.728,-0.329,0.437,-39.429,133.362,-19.714
0.866,-0.108,0.634,-13.733,198.608,-10.742
0.660,0.026,0.559,24.780,218.140,-7.141
0.517,0.017,0.533,49.744,211.182,6.042
0.477,0.053,0.567,53.345,189.697,14.465
0.508,0.123,0.644,45.044,156.738,19.836
0.483,0.165,0.619,38.452,110.352,23.437
0.488,0.156,0.598,28.992,64.880,27.893
0.513,0.152,0.608,18.433,29.846,34.790
0.662,0.131,0.645,12.878,5.798,43.152
0.589,0.046,0.583,11.414,-9.888,47.913
0.669,0.091,0.727,9.338,-13.184,43.640
0.638,0.145,0.716,13.428,-14.160,39.307
0.659,0.058,0.740,17.517,-10.742,45.166
0.638,0.035,0.730,17.395,-3.906,47.913
0.615,0.052,0.745,16.541,7.385,47.485
0.599,0.032,0.689,16.357,19.531,50.598
0.575,0.018,0.671,15.991,36.011,53.284
0.563,0.056,0.650,15.442,54.626,53.955
0.560,0.091,0.629,15.625,70.007,53.650
0.555,0.096,0.614,14.465,77.271,52.124
0.562,0.105,0.613,12.634,75.195,49.927
0.566,0.140,0.616,12.817,64.026,49.194
0.552,0.077,0.626,12.756,46.265,49.072
0.549,0.071,0.653,10.071,23.315,44.556
0.546,0.082,0.642,8.789,-4.211,41.260
0.560,0.047,0.596,9.583,-29.480,40.466
0.575,0.032,0.599,12.329,-45.410,42.236
0.585,0.093,0.593,18.188,-52.246,48.096
0.585,0.117,0.591,26.001,-47.974,57.800
0.581,0.146,0.601,30.151,-34.729,67.078
0.571,0.157,0.624,30.273,-16.846,73.547
0.518,0.109,0.658,30.029,1.343,78.613
0.482,0.106,0.670,28.564,16.479,79.956
0.477,0.070,0.707,25.452,25.696,77.332
0.473,0.142,0.736,22.827,27.527,70.068
0.474,0.172,0.720,21.667,20.447,65.796
0.493,0.185,0.713,18.738,9.338,65.063
0.500,0.225,0.700,15.930,-2.197,62.012
0.492,0.221,0.696,15.381,-11.047,58.533
0.473,0.167,0.705,16.846,-16.296,56.519
0.457,0.131,0.711,19.531,-17.639,54.077
0.445,0.138,0.705,23.376,-15.076,50.415
0.455,0.167,0.701,28.198,-9.766,47.791
0.487,0.237,0.708,33.386,-3.052,46.387
0.514,0.316,0.728,37.842,3.601,45.959
0.510,0.355,0.749,39.063,7.812,46.692
0.482,0.326,0.768,36.072,7.507,46.509
0.463,0.283,0.782,29.907,3.174,43.091
0.461,0.276,0.780,23.560,-3.113,37.231
0.459,0.257,0.792,19.226,-10.132,32.532
0.480,0.244,0.810,16.357,-17.334,29.358
0.513,0.267,0.815,13.794,-24.109,27.771
0.549,0.301,0.802,10.254,-29.846,29.785
0.582,0.332,0.766,7.324,-31.982,35.217
0.563,0.371,0.741,5.676,-25.940,41.809

0.610,0.596,0.867,11.841,-3.906,-40.894
0.617,0.616,0.892,5.737,-8.240,-43.152
0.613,0.643,0.882,-3.174,-12.634,-42.419
0.612,0.643,0.873,-12.634,-14.404,-41.870
0.624,0.635,0.882,-19.653,-13.367,-42.114
0.630,0.644,0.886,-23.621,-13.306,-41.504
0.610,0.650,0.901,-26.001,-15.503,-38.574
0.608,0.654,0.917,-28.381,-20.081,-35.034
0.593,0.663,0.916,-29.114,-26.733,-31.982
0.559,0.689,0.899,-27.222,-32.471,-31.250
0.536,0.695,0.885,-23.987,-35.461,-34.241
0.535,0.705,0.891,-19.958,-36.438,-39.124
0.524,0.706,0.898,-15.869,-37.903,-42.725
0.533,0.723,0.906,-14.526,-41.077,-41.992
0.537,0.749,0.911,-17.029,-45.654,-34.302
0.510,0.769,0.879,-22.400,-49.194,-20.874
0.481,0.789,0.835,-30.029,-47.791,-8.118
0.424,0.788,0.786,-36.499,-41.321,0.916
0.374,0.787,0.743,-39.307,-30.701,5.676
0.313,0.798,0.700,-36.926,-17.578,5.371
0.273,0.811,0.670,-28.076,-5.676,1.282
0.253,0.817,0.657,-14.038,2.197,-5.981
0.237,0.838,0.647,4.395,4.395,-17.517
0.239,0.850,0.653,26.184,-0.122,-32.104
0.316,0.769,0.704,46.753,-10.742,-48.523
0.439,0.757,0.833,59.998,-27.405,-59.998
0.514,0.793,0.860,65.063,-50.293,-58.472
0.569,0.788,0.852,61.890,-71.289,-45.837
0.597,0.725,0.842,52.673,-82.336,-29.907
0.556,0.694,0.826,44.800,-83.435,-19.531
0.487,0.653,0.797,41.809,-76.111,-14.587
0.424,0.620,0.743,41.870,-65.308,-15.930
0.363,0.583,0.705,44.067,-55.969,-23.621
0.295,0.571,0.693,49.622,-53.284,-35.583
0.213,0.506,0.652,60.059,-60.608,-48.828
0.196,0.365,0.625,71.594,-72.754,-62.744
0.248,0.265,0.697,80.078,-84.045,-76.477
0.297,0.204,0.799,83.496,-95.337,-79.346
0.321,0.170,0.854,79.468,-104.248,-70.129
0.310,0.119,0.849,66.040,-106.201,-53.345
0.302,0.057,0.866,45.044,-98.022,-33.325
0.230,-0.006,0.890,25.330,-83.191,-15.808
0.088,-0.094,0.877,11.536,-65.613,-9.033
-0.041,-0.138,0.830,-2.075,-44.617,-17.517
-0.085,-0.134,0.781,-15.686,-23.682,-34.973
-0.101,-0.224,0.709,-26.245,-9.827,-49.561
-0.148,-0.346,0.666,-30.701,-5.737,-60.120
-0.172,-0.420,0.651,-26.184,-9.277,-70.007
-0.136,-0.501,0.645,-15.259,-18.860,-75.806
-0.101,-0.598,0.606,-2.930,-32.227,-76.111
-0.108,-0.721,0.596,9.705,-43.701,-72.449
-0.083,-0.813,0.660,22.827,-48.218,-63.538
-0.060,-0.845,0.748,36.255,-51.575,-50.537
-0.079,-0.848,0.841,45.044,-56.885,-37.476
-0.151,-0.842,0.912,43.518,-63.599,-30.273
-0.198,-0.829,0.908,31.860,-68.604,-31.921
-0.219,-0.865,0.903,18.127,-65.063,-41.077
-0.215,-0.947,0.895,9.094,-54.077,-55.481
-0.155,-0.980,0.882,4.822,-42.236,-69.824
-0.078,-1.005,0.922,6.409,-33.569,-78.491
-0.007,-1.012,0.949,16.846,-31.738,-83.069
0.051,-1.003,1.004,32.043,-37.231,-84.595
0.148,-0.945,1.116,45.227,-48.218,-82.336
0.164,-0.836,1.140,55.969,-61.890,-76.965
0.192,-0.816,1.166,63.110,-71.167,-64.270
0.150,-0.796,1.166,67.017,-72.327,-60.364
0.152,-0.593,1.273,59.143,-56.274,-70.679
0.162,-0.507,1.223,48.523,-39.734,-74.158
0.196,-0.509,1.168,31.677,-20.630,-68.848
0.210,-0.501,1.146,13.367,-2.197,-62.439
0.195,-0.452,1.105,2.930,9.338,-55.786
0.199,-0.436,1.053,0.488,13.184,-46.936
0.156,-0.425,0.971,0.793,10.620,-38.635
0.134,-0.330,0.896,-0.244,10.681,-30.273
0.100,-0.271,0.834,-1.770,13.672,-19.165
0.081,-0.297,0.847,-1.770,18.127,-8.911
0.059,-0.347,0.870,3.052,18.127,-5.798
0.037,-0.337,0.890,11.169,13.245,-8.301
0.047,-0.277,0.934,17.456,6.409,-10.071
0.027,-0.268,0.937,18.127,1.465,-8.179
0.038,-0.266,1.006,12.329,0.244,-3.906
0.009,-0.338,1.025,7.202,-5.371,0.610
-0.020,-0.327,1.016,1.221,-14.832,0.122
0.035,-0.292,1.044,-5.554,-20.569,-4.089
0.049,-0.257,0.998,-7.202,-24.719,-8.545
0.080,-0.268,0.985,-6.592,-25.696,-9.216
0.113,-0.262,0.980,-7.507,-21.118,-7.629
0.117,-0.241,0.940,-7.385,-12.451,-2.930
0.127,-0.231,0.927,-6.653,-1.099,3.662
0.082,-0.241,0.919,-4.944,11.047,7.690
0.052,-0.231,0.926,-0.854,21.912,7.507
0.045,-0.193,0.961,4.578,29.785,4.944
0.030,-0.198,0.971,9.583,32.288,4.272
0.064,-0.204,1.026,10.437,30.823,6.592
0.059,-0.219,1.028,9.521,23.010,7.935
0.075,-0.226,1.021,7.324,13.123,7.751
0.071,-0.201,0.990,4.456,4.272,5.249
0.094,-0.193,0.958,0.610,0.610,4.333
0.183,-0.212,0.983,-2.563,2.319,5.432
0.201,-0.197,0.992,-1.221,0.854,6.409
0.175,-0.228,0.984,1.770,-4.333,10.498
0.163,-0.193,0.998,1.648,-10.315,15.137
0.161,-0.178,0.998,-1.648,-17.090,17.822
0.148,-0.190,0.997,-5.066,-22.217,18.738
0.105,-0.200,1.000,-7.568,-24.231,17.151
0.080,-0.166,0.987,-8.423,-22.400,14.343
0.059,-0.090,0.945,-8.118,-17.273,13.062
0.040,-0.203,0.878,-8.972,-7.629,17.273
0.074,-0.188,0.923,-9.521,5.615,13.489
0.030,-0.157,0.911,-2.502,11.719,7.507
0.080,-0.131,0.943,1.587,16.602,4.700
0.101,-0.151,0.972,5.127,15.076,5.676
0.083,-0.194,0.951,6.226,8.911,7.996
0.129,-0.151,1.039,3.601,5.371,8.118
0.119,-0.171,1.046,3.418,-2.380,9.277
0.113,-0.221,1.046,1.099,-9.766,9.705
0.133,-0.212,1.070,-3.845,-12.878,7.446
0.127,-0.192,1.055,-6.287,-16.846,8.301
0.112,-0.160,1.028,-8.545,-16.541,13.062

0.513,0.682,0.939,12.512,2.014,12.695
0.505,0.767,0.949,24.353,-5.981,14.587
0.462,0.837,0.958,40.039,-19.714,13.733
0.460,0.968,1.014,60.181,-32.593,6.165
0.534,1.143,1.041,78.796,-42.786,-3.784
0.630,1.307,1.055,93.140,-51.697,-13.062
0.732,1.445,1.038,99.854,-61.462,-22.156
0.873,1.542,0.935,101.013,-73.792,-34.119
1.007,1.620,0.836,96.313,-89.233,-49.011
1.038,1.572,0.757,89.111,-112.061,-61.646
0.985,1.453,0.594,82.031,-143.127,-71.045
0.910,1.415,0.472,81.543,-174.744,-80.872
0.784,1.385,0.395,91.614,-203.918,-83.252
0.646,1.333,0.370,110.046,-230.225,-75.439
0.514,1.301,0.394,135.010,-250.183,-60.852
0.355,1.215,0.466,160.889,-260.010,-43.457
0.187,1.115,0.565,178.589,-258.545,-23.926
-0.016,1.005,0.626,185.242,-244.751,-6.104
-0.308,0.823,0.634,182.007,-217.163,5.005
-0.542,0.547,0.659,167.847,-175.659,8.728
-0.647,0.347,0.733,140.991,-132.080,6.470
-0.801,0.223,0.689,99.731,-103.149,5.615
-1.019,-0.044,0.608,45.898,-88.806,12.207
-1.205,-0.421,0.490,-10.620,-83.862,22.888
-1.361,-0.816,0.203,-60.181,-84.167,25.696
-1.436,-1.180,-0.148,-84.656,-85.205,16.785
-1.378,-1.468,-0.376,-67.261,-85.999,2.319
-1.303,-1.759,-0.402,-20.020,-87.463,-5.615
-1.305,-2.232,-0.202,32.410,-92.651,0.549
-1.378,-2.574,0.135,74.524,-99.060,14.282
-1.411,-2.537,0.425,96.436,-91.919,15.015
-1.358,-2.397,0.778,105.774,-58.472,3.296
-1.200,-2.260,1.102,99.792,-12.207,-7.568
-1.057,-2.063,1.260,74.829,25.269,-12.817
-0.925,-1.841,1.276,38.391,49.194,-14.404
-0.746,-1.623,1.211,6.287,60.791,-12.817
-0.601,-1.484,1.035,-8.667,67.810,-10.681
-0.479,-1.289,0.782,-10.742,80.750,-9.766
-0.217,-1.118,0.696,-7.019,100.403,-5.493
-0.156,-0.987,0.470,0.244,107.483,2.930
-0.157,-0.814,0.428,1.465,111.877,12.695
-0.237,-0.724,0.438,5.188,106.262,22.339
-0.318,-0.702,0.511,9.155,91.370,30.762
-0.420,-0.674,0.598,5.188,67.200,31.982
-0.497,-0.617,0.697,-6.226,35.767,26.184
-0.555,-0.589,0.763,-17.944,2.136,17.517
-0.617,-0.542,0.791,-27.344,-29.114,7.507
-0.607,-0.561,0.845,-35.522,-50.598,0.366
-0.543,-0.573,0.894,-44.739,-58.899,-2.930
-0.545,-0.552,0.864,-52.856,-56.702,-7.080
-0.536,-0.411,0.805,-55.054,-46.204,-9.033
-0.466,-0.429,0.752,-52.185,-28.992,-2.075
-0.424,-0.477,0.705,-47.424,-10.559,6.775
-0.439,-0.426,0.666,-41.748,4.639,10.193
-0.443,-0.380,0.635,-35.461,18.066,12.512
-0.429,-0.353,0.615,-29.602,29.175,12.268
-0.392,-0.327,0.612,-21.240,35.095,9.644
-0.371,-0.328,0.640,-10.071,33.569,6.653
-0.383,-0.362,0.653,1.343,24.963,3.357
-0.375,-0.359,0.703,12.634,12.756,-1.282
-0.344,-0.344,0.776,22.705,0.122,-5.554
-0.332,-0.332,0.862,28.564,-11.658,-7.874
-0.336,-0.334,0.940,26.917,-21.545,-8.484
-0.370,-0.271,0.991,18.860,-24.597,-8.728
-0.369,-0.267,1.006,8.484,-19.653,-5.188
-0.349,-0.287,1.018,-4.089,-9.277,-1.160
-0.359,-0.317,0.982,-17.273,1.770,1.770
-0.351,-0.329,0.939,-27.344,12.878,2.747
-0.331,-0.330,0.890,-30.701,20.142,2.197
-0.311,-0.332,0.836,-28.259,20.569,2.380
-0.288,-0.326,0.805,-22.522,16.052,2.319
-0.284,-0.333,0.785,-14.160,7.141,1.038
-0.296,-0.329,0.792,-2.930,-3.235,-2.258
-0.309,-0.322,0.820,9.216,-12.451,-6.897
-0.292,-0.308,0.852,17.639,-18.311,-11.047
-0.275,-0.300,0.895,19.287,-19.104,-11.719
-0.261,-0.284,0.916,15.198,-15.320,-8.057
-0.289,-0.279,0.913,7.263,-7.874,-1.770
-0.315,-0.263,0.897,-1.526,1.892,3.540
-0.339,-0.273,0.883,-6.653,10.437,5.615
-0.363,-0.291,0.886,-7.874,14.099,4.883
-0.369,-0.292,0.873,-6.775,13.306,3.235
-0.360,-0.314,0.874,-2.991,9.644,1.831
-0.378,-0.300,0.870,1.221,4.639,-1.038
-0.363,-0.294,0.880,3.479,0.122,-2.441
-0.346,-0.307,0.885,4.028,-4.089,-2.808
-0.343,-0.306,0.880,4.211,-7.385,-3.296
-0.335,-0.303,0.880,4.944,-8.545,-3.662
-0.332,-0.303,0.886,6.592,-7.996,-3.479
-0.350,-0.299,0.907,8.301,-6.348,-2.930
-0.373,-0.293,0.922,9.216,-3.784,-1.831
-0.388,-0.292,0.928,8.972,-0.427,-1.099
-0.385,-0.290,0.926,7.141,3.845,-1.587
-0.374,-0.284,0.915,4.944,8.545,-2.441
-0.354,-0.270,0.905,2.869,12.756,-3.113
-0.337,-0.293,0.915,0.427,15.015,-3.113
-0.331,-0.295,0.893,-1.465,14.404,-2.319
-0.329,-0.285,0.876,-1.282,12.451,-1.343
-0.331,-0.280,0.880,-0.977,10.315,-0.732
-0.348,-0.285,0.890,-0.977,7.202,0.122
-0.370,-0.295,0.899,-1.282,3.845,0.916
-0.386,-0.288,0.891,-1.343,0.916,1.404
-0.398,-0.272,0.879,-0.610,-0.488,1.099
-0.400,-0.271,0.882,-0.061,0.732,-0.366
-0.391,-0.280,0.893,0.122,3.174,-1.221
-0.384,-0.292,0.899,-0.061,4.822,-1.587
-0.370,-0.301,0.901,0.916,6.104,-2.258
-0.359,-0.314,0.906,2.930,7.874,-3.296
-0.344,-0.324,0.923,4.822,9.705,-4.944
-0.325,-0.326,0.932,6.653,10.742,-6.653
-0.308,-0.332,0.939,7.324,11.292,-6.714
-0.297,-0.348,0.954,7.019,12.024,-5.615
-0.286,-0.343,0.953,5.798,11.719,-4.272
-0.285,-0.312,0.939,3.845,10.864,-2.808
-0.292,-0.294,0.918,1.160,10.437,-0.183
-0.297,-0.292,0.898,-2.563,11.658,2.441
-0.296,-0.280,0.875,-5.432,13.489,3.479
-0.306,-0.265,0.858,-6.836,15.198,4.211
-0.316,-0.260,0.847,-6.775,15.137,4.700

0.338,0.800,1.072,-23.621,22.156,-9.888
0.307,0.880,1.116,-20.203,13.489,-6.714
0.251,1.024,1.129,-17.212,12.329,-8.362
0.196,1.202,1.130,-16.541,18.188,-11.230
0.127,1.351,1.127,-17.517,26.611,-12.512
0.060,1.495,1.093,-20.386,34.912,-13.367
0.014,1.622,1.035,-21.851,40.405,-17.456
-0.010,1.761,0.951,-18.555,43.762,-25.635
0.005,1.896,0.873,-11.292,44.495,-38.757
0.056,1.990,0.808,-3.784,41.077,-55.664
0.082,2.010,0.748,2.625,30.518,-73.364
0.084,1.945,0.699,9.399,12.024,-89.966
0.037,1.821,0.651,18.921,-10.376,-106.140
-0.038,1.724,0.623,30.579,-33.386,-123.352
-0.064,1.591,0.632,43.030,-53.467,-139.221
-0.045,1.457,0.663,51.392,-69.153,-149.536
-0.093,1.330,0.662,53.345,-80.933,-153.015
-0.171,1.095,0.601,51.086,-84.900,-151.184
-0.207,0.746,0.543,48.523,-76.965,-146.118
-0.215,0.385,0.523,45.410,-58.716,-135.742
-0.239,0.044,0.512,42.786,-31.006,-117.065
-0.334,-0.313,0.510,39.917,11.536,-93.323
-0.463,-0.651,0.508,33.447,67.078,-72.571
-0.598,-1.024,0.566,21.667,120.605,-56.335
-0.831,-1.395,0.670,4.700,153.992,-46.875
-1.047,-1.644,0.885,-23.315,162.354,-51.514
-1.186,-1.770,1.064,-61.035,141.174,-63.721
-1.281,-1.979,1.168,-94.727,85.449,-70.068
-1.294,-2.150,1.162,-112.488,4.761,-76.599
-1.210,-2.269,1.073,-105.530,-76.721,-87.769
-1.019,-2.109,1.092,-66.956,-130.554,-107.727
-0.807,-2.195,0.984,-1.160,-145.081,-126.770
-0.619,-2.016,0.880,68.604,-115.906,-155.640
-0.231,-1.861,0.774,124.390,-41.626,-167.725
0.203,-1.663,0.767,162.537,54.688,-164.124
0.417,-1.505,0.786,184.998,139.709,-153.625
0.502,-1.419,0.835,190.186,188.538,-137.878
0.593,-1.261,0.982,179.077,195.557,-123.840
0.706,-1.108,1.197,156.189,158.569,-105.652
0.792,-0.904,1.348,118.774,81.360,-89.355
0.842,-0.724,1.417,71.899,-14.282,-74.463
0.811,-0.645,1.337,29.907,-100.708,-57.983
0.692,-0.651,1.221,1.770,-146.912,-41.870
0.566,-0.651,1.171,-10.681,-144.531,-28.137
0.448,-0.624,1.113,-13.489,-108.887,-16.846
0.350,-0.625,1.082,-12.207,-60.059,-9.827
0.272,-0.582,1.045,-10.193,-18.005,-4.822
0.198,-0.503,0.966,-10.376,10.193,-0.305
0.140,-0.452,0.896,-15.808,27.161,7.141
0.080,-0.435,0.838,-24.048,33.569,14.343
0.053,-0.411,0.786,-31.677,28.931,17.700
0.049,-0.365,0.710,-37.903,13.367,17.212
0.064,-0.321,0.654,-41.565,-7.874,15.503
0.072,-0.289,0.637,-38.879,-29.541,15.625
0.046,-0.289,0.669,-27.832,-48.462,16.846
0.024,-0.287,0.730,-12.939,-60.120,16.541
0.022,-0.251,0.814,-0.671,-61.462,15.930
0.015,-0.204,0.865,7.080,-53.894,17.700
-0.009,-0.205,0.920,12.573,-40.039,20.935
-0.041,-0.222,0.995,16.479,-24.353,21.973
-0.038,-0.217,1.050,17.944,-12.390,18.616
-0.022,-0.210,1.090,15.869,-6.409,12.939
-0.016,-0.214,1.093,9.705,-5.371,8.118
0.007,-0.217,1.061,2.991,-6.104,5.615
0.040,-0.198,1.014,-1.221,-5.310,4.272
0.046,-0.186,0.968,-2.930,-1.892,3.235
0.049,-0.187,0.933,-3.967,4.028,2.808
0.052,-0.193,0.902,-4.211,9.399,2.075
0.060,-0.202,0.871,-3.052,11.353,1.587
0.077,-0.208,0.853,0.977,10.071,-0.366
0.083,-0.203,0.857,5.737,5.981,-2.747
0.077,-0.215,0.871,9.827,0.122,-3.967
0.100,-0.219,0.900,12.695,-4.883,-4.578
0.109,-0.218,0.932,14.343,-6.775,-3.845
0.119,-0.226,0.958,14.465,-6.165,-3.357
0.139,-0.242,0.974,14.404,-4.395,-4.272
0.139,-0.279,1.043,14.282,-1.587,-5.859
0.148,-0.280,1.104,11.414,-0.244,-6.226
0.178,-0.254,1.111,2.991,-3.296,-5.066
0.183,-0.246,1.087,-8.606,-9.216,-2.075
0.172,-0.261,1.049,-18.188,-14.954,2.563
0.170,-0.260,1.011,-22.766,-16.479,5.737
0.165,-0.266,0.986,-23.437,-14.709,6.653
0.160,-0.282,0.976,-22.339,-11.902,6.287
0.144,-0.283,0.962,-19.714,-9.338,4.761
0.134,-0.274,0.936,-16.174,-6.348,2.686
0.135,-0.274,0.915,-11.963,-2.991,1.343
0.135,-0.271,0.896,-7.202,-1.221,1.038
0.106,-0.242,0.877,-1.343,-0.244,0.854
0.089,-0.252,0.893,5.493,0.977,0.916
0.081,-0.256,0.908,10.925,1.038,-1.038
0.084,-0.263,0.935,13.794,0.366,-2.991
0.083,-0.273,0.974,13.611,-1.221,-3.662
0.077,-0.262,1.000,11.414,-3.296,-3.601
0.088,-0.248,1.002,8.301,-5.920,-2.808
0.097,-0.248,0.989,4.395,-7.996,-1.343
0.104,-0.239,0.998,1.099,-8.179,0.122
0.083,-0.262,0.995,-1.221,-6.958,2.258
0.095,-0.243,1.018,-3.601,-4.028,3.479
0.097,-0.230,1.038,-5.859,-1.587,4.639
0.093,-0.257,1.053,-9.399,-0.793,6.470
0.072,-0.259,1.041,-13.428,-0.916,6.958
0.082,-0.242,1.019,-14.648,-0.854,6.409
0.092,-0.226,0.994,-13.855,0.061,5.737
0.100,-0.229,0.976,-12.573,2.380,5.432
0.104,-0.243,0.960,-10.193,6.165,4.395
0.097,-0.215,0.940,-6.653,10.925,1.892
0.094,-0.207,0.933,-3.906,15.381,-0.305
0.101,-0.230,0.925,-2.014,18.494,-0.977
0.107,-0.240,0.913,-0.610,18.433,-1.770
0.120,-0.218,0.901,0.793,15.381,-2.686
0.132,-0.216,0.898,3.540,10.254,-2.808
0.137,-0.223,0.906,5.920,3.601,-2.686
0.139,-0.222,0.921,7.019,-2.686,-2.075
0.136,-0.232,0.951,6.409,-7.629,0.183
0.133,-0.226,0.978,3.906,-10.803,3.357
0.124,-0.222,0.998,0.305,-12.329,5.615
0.117,-0.223,1.005,-3.296,-11.719,6.836
0.104,-0.221,1.003,-6.592,-9.155,8.179

0.163,0.976,0.975,-16.968,-43.579,-77.759
0.167,1.029,0.943,-16.907,-53.467,-87.952
0.224,1.083,0.875,-14.648,-63.049,-99.548
0.372,1.098,0.821,-7.751,-72.632,-106.934
0.583,1.170,0.859,5.066,-83.496,-108.704
0.704,1.294,0.895,17.883,-93.811,-98.206
0.643,1.426,0.861,25.696,-96.619,-76.050
0.559,1.399,0.906,24.536,-80.994,-49.194
0.384,1.269,0.926,13.794,-50.354,-26.855
0.104,1.104,0.871,-5.737,-10.071,-10.559
-0.181,0.868,0.760,-24.292,35.645,-3.479
-0.512,0.580,0.616,-34.241,79.529,-4.272
-0.831,0.246,0.479,-35.706,111.145,-8.423
-0.983,-0.237,0.456,-24.353,120.422,-16.052
-1.102,-0.830,0.511,-4.028,102.417,-30.762
-0.959,-1.366,0.719,22.583,53.345,-55.969
-0.746,-1.529,0.999,57.068,-13.672,-75.439
-0.771,-1.764,1.064,92.957,-74.219,-57.617
-0.554,-2.223,0.956,112.915,-108.948,-24.048
-0.419,-2.479,1.015,118.408,-104.492,-5.188
-0.493,-2.829,1.184,124.329,-66.162,-19.104
-0.309,-2.568,1.510,107.178,9.888,-84.595
0.193,-2.354,1.324,81.299,94.299,-138.855
0.563,-2.238,1.086,60.608,157.715,-143.982
0.749,-2.033,0.998,42.175,182.556,-129.700
0.919,-1.655,1.067,27.771,171.936,-114.685
0.961,-1.187,1.075,15.198,134.094,-92.834
0.892,-0.814,0.981,-0.732,80.200,-59.082
0.781,-0.656,0.880,-22.217,27.283,-24.963
0.607,-0.640,0.789,-38.818,-12.817,-0.671
0.393,-0.632,0.773,-35.706,-36.987,16.663
0.249,-0.530,0.719,-17.334,-46.997,30.579
0.083,-0.403,0.655,0.488,-44.983,39.307
-0.097,-0.325,0.698,15.015,-32.227,41.931
-0.234,-0.275,0.781,24.902,-18.372,35.339
-0.297,-0.255,0.809,25.146,-13.489,19.836
-0.260,-0.236,0.785,18.311,-15.991,1.160
-0.191,-0.252,0.770,9.888,-20.996,-10.986
-0.106,-0.258,0.733,2.197,-25.574,-13.062
-0.040,-0.233,0.683,-2.441,-30.701,-7.568
-0.024,-0.208,0.675,-0.793,-32.837,-3.052
-0.004,-0.189,0.740,6.470,-32.532,-1.648
0.010,-0.192,0.812,14.099,-33.997,-0.732
0.031,-0.169,0.865,18.494,-36.926,-1.038
0.041,-0.181,0.913,18.250,-38.025,-0.732
0.077,-0.182,0.964,14.771,-36.865,1.831
0.090,-0.215,0.969,8.972,-33.813,5.371
0.095,-0.202,0.963,3.174,-27.710,6.104
0.085,-0.195,0.977,-1.160,-18.555,5.554
0.080,-0.208,0.986,-3.845,-11.292,3.967
0.069,-0.199,0.965,-8.362,-6.714,0.854
0.069,-0.172,0.937,-12.756,-3.296,-1.282
0.078,-0.165,0.921,-13.977,-1.892,-1.831
0.089,-0.172,0.924,-12.817,-3.540,-1.953
0.099,-0.182,0.936,-9.277,-8.789,-2.441
0.128,-0.176,0.954,-4.944,-15.503,-3.906
0.150,-0.189,0.976,-1.221,-21.301,-5.615
0.154,-0.210,1.016,1.099,-23.987,-6.897
0.153,-0.194,1.032,-0.183,-24.048,-5.615
0.143,-0.163,1.008,-4.272,-20.020,-0.549
0.139,-0.119,0.976,-8.789,-11.841,7.141
0.120,-0.147,0.976,-10.742,-2.136,13.428
0.072,-0.173,0.969,-10.986,5.859,16.663
0.059,-0.166,0.959,-10.010,11.108,17.456
0.067,-0.146,0.961,-7.629,12.756,15.991
0.067,-0.141,0.967,-5.676,11.353,14.832
0.071,-0.117,0.955,-5.005,7.935,13.367
0.065,-0.111,0.942,-5.798,4.944,11.780
0.069,-0.122,0.929,-7.080,3.662,9.827
0.081,-0.128,0.915,-6.165,3.296,6.592
0.087,-0.129,0.913,-2.747,3.540,2.625
0.100,-0.141,0.932,1.465,3.479,-1.038
0.130,-0.160,0.965,3.906,1.465,-2.991
0.164,-0.186,0.982,3.540,-3.662,-2.747
0.184,-0.195,0.984,2.686,-9.949,-0.854
0.195,-0.185,0.978,3.174,-14.404,1.282
0.192,-0.181,0.993,4.333,-14.709,3.113
0.171,-0.172,1.021,5.249,-12.390,5.005
0.152,-0.151,1.031,4.761,-9.338,6.287
0.131,-0.156,1.030,2.319,-5.859,7.141
0.108,-0.167,1.011,-0.610,-2.136,7.141
0.077,-0.161,0.995,-0.244,1.953,6.409
0.054,-0.157,0.982,3.174,7.263,5.432
0.039,-0.155,1.000,6.042,12.268,3.540
0.043,-0.138,1.014,6.714,13.062,0.549
0.042,-0.139,1.015,4.944,8.179,-1.526
0.043,-0.157,1.012,3.052,0.244,-3.174
0.069,-0.158,1.009,1.465,-7.019,-4.517
0.097,-0.150,0.998,0.610,-11.658,-4.761
0.116,-0.163,0.991,0.061,-13.306,-3.906
0.131,-0.173,0.984,-0.122,-12.207,-3.357
0.136,-0.183,0.982,1.038,-8.911,-2.808
0.141,-0.188,0.986,2.563,-5.249,-2.197
0.134,-0.173,0.987,3.723,-1.892,-1.343
0.118,-0.195,0.999,4.456,0.671,-0.183
0.121,-0.193,0.994,5.432,2.319,0.427
0.115,-0.191,0.984,6.958,3.174,0.549
0.118,-0.191,0.982,8.728,4.822,0.793
0.123,-0.190,0.991,11.108,7.568,0.916
0.135,-0.194,1.006,12.085,10.193,0.916
0.147,-0.213,1.026,11.597,11.658,1.160
0.160,-0.227,1.033,10.376,10.376,1.221
0.187,-0.230,1.047,9.155,7.080,1.770
0.197,-0.250,1.075,7.324,2.869,4.517
0.194,-0.274,1.096,5.249,-0.610,7.935
0.198,-0.280,1.104,2.808,-2.869,10.315
0.175,-0.296,1.093,0.916,-3.174,12.268
0.156,-0.313,1.061,-0.916,-1.038,13.611
0.143,-0.320,1.028,-1.343,3.784,13.855
0.111,-0.346,1.002,1.099,10.376,13.794
0.078,-0.356,0.958,7.812,17.761,12.085
0.057,-0.367,0.928,18.066,24.902,7.202
0.056,-0.370,0.894,29.968,29.541,-0.122
0.068,-0.389,0.871,39.429,29.541,-5.981
0.080,-0.418,0.868,44.861,25.208,-10.010
0.090,-0.393,0.899,47.485,16.907,-11.780
0.126,-0.407,0.907,46.265,4.456,-8.423
0.139,-0.422,0.946,40.527,-10.681,-0.549
0.102,-0.421,0.954,30.579,-26.978,8.606

0.520,0.609,1.018,3.357,-5.005,2.747
0.567,0.708,1.022,4.089,-4.395,4.456
0.615,0.792,1.010,3.784,-7.812,7.141
0.644,0.828,1.017,3.174,-13.733,9.338
0.663,0.893,0.990,3.113,-20.752,11.414
0.685,0.926,0.966,3.662,-27.771,14.648
0.689,0.926,0.957,4.395,-34.058,18.738
0.696,0.921,0.969,5.371,-40.222,23.804
0.709,0.937,0.985,8.057,-46.265,31.433
0.712,0.962,0.991,11.719,-51.514,42.419
0.700,0.983,0.991,14.160,-53.040,53.650
0.645,0.956,1.004,15.686,-48.218,60.974
0.554,0.981,1.001,15.991,-38.086,64.941
0.475,0.940,1.002,14.648,-25.879,68.176
0.399,0.916,1.000,12.878,-14.160,68.787
0.354,0.937,0.997,9.460,-5.554,67.322
0.264,0.983,0.955,3.235,-0.183,66.711
0.101,1.003,0.859,-7.751,5.371,66.040
-0.029,0.941,0.808,-20.630,14.954,62.134
-0.191,0.819,0.761,-32.532,23.437,52.917
-0.375,0.664,0.671,-43.335,28.076,41.809
-0.541,0.422,0.541,-51.880,29.907,30.884
-0.647,0.123,0.466,-51.636,28.748,16.357
-0.621,-0.154,0.466,-41.321,23.499,1.038
-0.684,-0.395,0.440,-26.123,15.869,-7.019
-0.780,-0.693,0.436,-10.193,12.939,-15.625
-0.866,-1.191,0.358,4.211,14.038,-39.490
-0.622,-1.654,0.486,21.667,12.146,-79.041
-0.254,-2.409,0.803,40.100,-8.179,-114.807
-0.019,-2.527,0.921,59.082,-55.969,-141.418
0.115,-2.421,1.255,73.059,-86.548,-123.047
0.377,-2.204,1.697,75.684,-95.459,-88.562
0.358,-2.190,1.481,84.961,-106.506,-68.726
0.377,-2.151,1.529,80.994,-84.656,-52.917
0.483,-1.920,1.623,66.040,-39.551,-48.828
0.471,-1.512,1.535,59.998,-2.014,-53.162
0.470,-1.237,1.381,54.626,28.931,-51.819
0.516,-1.053,1.236,37.476,53.711,-43.884
0.474,-0.887,1.120,16.235,65.796,-36.194
0.417,-0.749,0.992,-0.488,64.636,-29.663
0.397,-0.653,0.857,-13.550,53.772,-23.376
0.389,-0.615,0.791,-22.400,35.400,-18.921
0.360,-0.596,0.718,-27.161,9.766,-15.747
0.300,-0.521,0.702,-29.968,-14.893,-14.465
0.218,-0.452,0.650,-27.466,-35.278,-13.062
0.167,-0.454,0.622,-20.935,-47.852,-11.108
0.133,-0.409,0.641,-14.404,-53.772,-12.085
0.079,-0.363,0.640,-8.240,-56.763,-12.451
0.046,-0.296,0.653,-5.615,-59.082,-11.963
0.016,-0.251,0.658,-8.240,-62.622,-9.705
0.014,-0.283,0.675,-12.451,-68.359,-4.761
-0.008,-0.304,0.724,-14.771,-74.524,-2.319
-0.064,-0.250,0.765,-11.353,-79.407,-3.967
-0.083,-0.229,0.795,-6.042,-79.590,-5.127
-0.106,-0.218,0.830,-1.831,-74.463,-6.470
-0.144,-0.198,0.839,2.808,-66.711,-9.216
-0.152,-0.177,0.866,9.399,-57.007,-12.817
-0.158,-0.196,0.898,18.127,-48.584,-17.517
-0.129,-0.190,0.959,25.146,-42.603,-22.644
-0.109,-0.162,1.003,28.870,-39.063,-24.353
-0.095,-0.156,1.042,28.748,-36.377,-23.315
-0.080,-0.142,1.075,25.635,-31.860,-21.362
-0.074,-0.146,1.089,19.714,-24.353,-18.311
-0.071,-0.174,1.086,12.085,-15.137,-16.113
-0.043,-0.186,1.064,5.554,-5.127,-16.846
-0.017,-0.213,1.042,3.052,4.395,-18.372
0.008,-0.230,1.030,2.869,13.428,-19.348
0.041,-0.221,1.015,2.930,20.874,-19.043
0.064,-0.209,0.997,3.296,27.283,-17.212
0.083,-0.208,0.978,4.211,31.921,-15.625
0.078,-0.217,0.969,5.005,33.203,-14.099
0.069,-0.238,0.990,5.432,30.762,-11.841
0.102,-0.230,1.012,4.761,23.132,-8.911
0.112,-0.232,1.011,1.404,9.888,-4.883
0.102,-0.245,1.014,-4.822,-3.723,-2.930
0.087,-0.242,1.008,-8.972,-13.306,-2.991
0.084,-0.225,1.000,-9.033,-17.700,-3.662
0.080,-0.221,0.993,-7.874,-16.846,-4.150
0.062,-0.221,0.988,-7.141,-12.207,-4.944
0.041,-0.215,0.977,-5.737,-6.653,-6.348
0.041,-0.214,0.958,-3.784,-0.122,-7.935
0.048,-0.216,0.939,-0.916,6.165,-10.376
0.054,-0.219,0.924,2.258,11.963,-13.000
0.046,-0.231,0.923,5.737,17.578,-14.832
0.034,-0.250,0.951,8.789,22.400,-15.686
0.057,-0.229,0.960,9.583,23.499,-14.832
0.073,-0.204,0.952,8.362,18.982,-12.695
0.070,-0.203,0.947,6.531,10.498,-11.047
0.058,-0.211,0.949,5.310,1.038,-10.254
0.054,-0.215,0.956,6.042,-6.470,-10.681
0.060,-0.239,0.981,8.484,-10.498,-11.414
0.076,-0.241,1.004,10.254,-12.817,-10.864
0.078,-0.229,1.020,9.277,-14.587,-7.996
0.068,-0.227,1.026,6.897,-15.137,-4.822
0.050,-0.230,1.022,3.723,-13.550,-3.296
0.042,-0.227,1.012,1.831,-9.888,-3.296
0.046,-0.220,1.003,0.793,-4.517,-4.333
0.057,-0.219,1.000,0.000,2.319,-5.249
0.063,-0.231,0.992,-0.671,8.118,-4.700
0.068,-0.239,0.982,-0.916,12.329,-3.784
0.065,-0.227,0.974,0.366,15.381,-2.991
0.059,-0.221,0.969,2.686,17.517,-2.258
0.060,-0.216,0.974,2.991,18.616,-2.258
0.067,-0.214,0.971,1.587,17.029,-2.869
0.071,-0.224,0.964,0.183,13.489,-3.235
0.083,-0.234,0.950,-0.488,9.155,-3.845
0.101,-0.226,0.930,-0.122,4.456,-4.333
0.115,-0.221,0.917,1.770,0.732,-4.395
0.125,-0.223,0.930,3.052,-1.587,-3.601
0.123,-0.222,0.944,2.319,-3.662,-0.671
0.101,-0.224,0.949,0.366,-6.531,3.052
0.078,-0.226,0.954,-1.770,-8.179,4.822
0.059,-0.227,0.960,-2.625,-8.179,4.944
0.052,-0.218,0.964,-3.052,-6.958,4.028
0.047,-0.207,0.958,-2.747,-4.761,2.808
0.046,-0.199,0.952,-2.625,-2.197,2.563
0.044,-0.200,0.949,-2.319,-0.366,2.075
0.041,-0.217,0.956,-1.404,0.244,1.160
0.038,-0.233,0.967,-0.488,-0.732,0.000

0.338,0.765,1.147,27.161,49.561,3.662
0.417,0.888,1.173,30.701,35.461,-6.958
0.482,0.992,1.212,35.461,22.766,-18.677
0.521,1.045,1.298,40.527,11.963,-31.677
0.574,1.103,1.351,43.213,1.648,-45.227
0.594,1.181,1.369,42.786,-7.690,-58.044
0.603,1.326,1.416,40.894,-14.648,-64.209
0.620,1.489,1.458,38.086,-19.287,-59.326
0.612,1.613,1.460,35.217,-20.447,-48.218
0.576,1.709,1.479,31.616,-17.883,-36.133
0.552,1.785,1.487,27.405,-13.672,-23.010
0.495,1.807,1.453,22.339,-9.583,-10.132
0.381,1.806,1.411,15.747,-5.676,-1.526
0.227,1.780,1.332,7.935,-1.038,3.235
0.108,1.721,1.239,-0.366,3.113,3.906
-0.012,1.625,1.109,-9.827,2.136,2.380
-0.156,1.481,0.960,-20.264,-2.686,0.366
-0.292,1.312,0.777,-27.161,-7.141,-5.615
-0.415,1.120,0.610,-27.283,-9.827,-17.883
-0.503,0.919,0.455,-20.691,-12.756,-35.706
-0.568,0.717,0.324,-9.155,-17.212,-58.655
-0.601,0.467,0.219,3.357,-24.231,-82.947
-0.548,0.168,0.170,12.207,-34.241,-102.600
-0.317,-0.148,0.142,17.944,-50.598,-114.014
-0.154,-0.522,0.103,23.499,-69.885,-113.464
-0.151,-0.856,0.123,28.381,-77.332,-99.731
-0.155,-1.071,0.242,27.405,-63.232,-74.280
-0.236,-1.268,0.301,18.738,-35.461,-44.067
-0.368,-1.561,0.370,0.732,-4.028,-19.043
-0.495,-1.864,0.446,-20.142,21.423,-3.296
-0.682,-2.071,0.452,-28.748,35.095,-1.404
-0.799,-2.172,0.562,-20.142,34.058,-18.311
-0.756,-2.181,0.707,-1.709,10.498,-47.913
-0.582,-2.114,0.829,17.822,-39.063,-77.759
-0.474,-1.989,0.887,31.311,-101.196,-101.257
-0.339,-1.829,1.101,40.771,-154.541,-108.643
-0.290,-1.707,1.164,58.777,-195.129,-102.112
-0.263,-1.471,1.297,75.012,-202.881,-97.168
-0.238,-1.215,1.397,85.083,-183.472,-89.661
-0.185,-1.030,1.325,83.191,-145.081,-83.557
-0.099,-0.930,1.252,65.979,-89.844,-80.017
-0.026,-0.936,1.162,46.387,-31.677,-70.435
0.063,-0.949,1.066,34.058,18.005,-56.213
0.169,-0.868,0.990,32.959,53.162,-46.326
0.214,-0.808,0.875,40.710,71.045,-38.208
0.232,-0.715,0.844,48.523,78.674,-31.067
0.212,-0.678,0.878,55.603,75.745,-23.560
0.249,-0.648,0.981,58.411,59.875,-18.860
0.229,-0.606,1.028,54.321,30.151,-18.738
0.162,-0.551,1.073,45.227,-1.160,-23.071
0.081,-0.559,1.107,36.621,-27.893,-25.513
0.070,-0.510,1.172,25.085,-41.199,-22.522
0.008,-0.431,1.157,11.780,-43.335,-12.329
-0.061,-0.373,1.118,-3.357,-33.386,-1.831
-0.107,-0.379,1.065,-17.517,-14.526,4.578
-0.145,-0.380,1.000,-25.513,7.263,4.517
-0.173,-0.383,0.943,-25.208,27.344,2.747
-0.161,-0.385,0.910,-18.799,41.382,0.916
-0.149,-0.338,0.891,-8.850,46.814,-3.174
-0.091,-0.264,0.877,2.319,43.884,-8.484
-0.062,-0.248,0.864,13.611,33.875,-14.465
-0.021,-0.250,0.869,20.569,22.156,-20.264
0.047,-0.280,0.901,24.597,11.230,-23.621
0.120,-0.304,0.949,24.048,0.977,-20.081
0.117,-0.309,0.971,19.165,-9.277,-10.010
0.069,-0.306,0.993,11.780,-16.418,-0.488
0.017,-0.305,1.005,2.991,-17.517,5.798
-0.042,-0.307,1.010,-4.761,-14.282,8.118
-0.083,-0.287,1.017,-9.460,-8.789,6.958
-0.102,-0.269,1.029,-10.681,-3.357,4.578
-0.122,-0.270,1.013,-9.277,-1.221,1.831
-0.112,-0.284,0.995,-7.629,-1.343,-1.831
-0.077,-0.298,0.978,-5.859,-1.160,-5.371
-0.036,-0.299,0.964,-2.075,-0.366,-8.057
0.004,-0.286,0.944,2.991,2.808,-9.888
0.036,-0.286,0.937,6.653,8.850,-10.193
0.062,-0.293,0.962,8.240,15.259,-7.568
0.084,-0.277,0.973,8.606,18.921,-1.587
0.076,-0.258,0.973,8.057,19.470,3.723
0.042,-0.262,0.968,5.981,18.555,5.371
-0.004,-0.281,0.981,3.174,16.968,3.601
-0.011,-0.281,0.968,0.977,13.794,-0.061
0.002,-0.264,0.941,0.488,9.644,-3.418
0.016,-0.263,0.914,0.122,4.395,-5.432
0.012,-0.271,0.901,-0.244,-1.038,-6.592
0.008,-0.273,0.894,-0.183,-5.005,-7.141
0.005,-0.272,0.889,0.488,-7.568,-7.446
0.008,-0.273,0.880,1.404,-9.277,-8.728
0.012,-0.284,0.873,2.258,-10.132,-10.803
0.014,-0.295,0.861,3.052,-10.620,-12.390
0.023,-0.302,0.860,5.249,-10.132,-12.634
0.027,-0.305,0.858,8.972,-8.301,-12.085
0.031,-0.302,0.866,12.451,-4.700,-11.169
0.049,-0.316,0.893,14.099,-0.305,-8.911
0.046,-0.320,0.913,13.916,3.601,-4.639
0.027,-0.311,0.921,12.451,7.385,-0.793
0.013,-0.311,0.934,10.376,11.597,1.099
0.001,-0.318,0.952,9.277,14.954,0.488
-0.003,-0.330,0.971,8.301,15.381,0.000
-0.000,-0.322,0.981,6.897,12.146,-0.061
-0.004,-0.316,0.971,4.272,6.287,0.122
-0.003,-0.290,0.940,0.916,0.610,0.061
-0.002,-0.274,0.912,-2.686,-2.625,-0.183
-0.009,-0.274,0.887,-4.761,-3.296,-0.061
-0.013,-0.291,0.874,-5.188,-2.502,0.366
-0.007,-0.305,0.866,-2.075,-0.793,-0.122
0.003,-0.300,0.869,2.502,0.916,-1.282
0.007,-0.286,0.887,6.104,2.563,-1.770
0.005,-0.288,0.911,8.240,3.113,-1.404
0.016,-0.287,0.928,8.362,2.930,0.366
0.021,-0.289,0.937,6.165,2.502,3.357
0.016,-0.310,0.940,4.700,1.770,5.371
0.019,-0.327,0.946,4.028,2.441,5.066
0.025,-0.324,0.962,4.089,2.991,3.662
0.026,-0.310,0.966,3.357,1.770,3.723
0.008,-0.307,0.959,1.099,-0.122,5.249
-0.010,-0.295,0.942,-3.052,0.000,6.836
-0.021,-0.290,0.912,-5.981,2.502,7.446
-0.021,-0.290,0.885,-6.531,7.263,7.385

0.489,0.552,1.236,-31.372,31.860,-28.748
0.512,0.629,1.270,-29.541,40.405,-25.879
0.450,0.675,1.174,-30.151,46.570,-24.170
0.504,0.685,1.213,-34.729,53.772,-22.583
0.499,0.725,1.178,-39.307,53.894,-25.269
0.468,0.762,1.128,-41.138,48.340,-27.100
0.480,0.751,1.079,-44.434,41.992,-28.442
0.464,0.734,1.007,-45.715,33.630,-35.522
0.429,0.802,0.958,-43.762,24.597,-49.316
0.423,0.865,0.894,-36.926,13.306,-59.875
0.408,0.910,0.848,-24.353,-0.183,-66.406
0.385,0.997,0.807,-9.094,-14.038,-73.242
0.379,1.124,0.775,7.751,-26.367,-81.787
0.413,1.249,0.784,21.545,-34.851,-90.393
0.494,1.463,0.802,29.114,-42.725,-96.558
0.571,1.571,0.759,31.189,-52.246,-95.459
0.625,1.584,0.720,27.100,-58.655,-92.224
0.679,1.582,0.716,19.836,-60.730,-89.966
0.735,1.562,0.734,16.113,-63.904,-85.327
0.702,1.458,0.690,16.174,-69.946,-75.378
0.624,1.322,0.709,14.343,-72.021,-60.974
0.469,1.250,0.658,8.789,-66.223,-45.288
0.264,1.115,0.565,0.854,-53.345,-26.733
0.021,0.913,0.483,-12.268,-34.302,-8.606
-0.292,0.594,0.327,-31.738,-11.658,7.202
-0.499,0.056,0.282,-52.795,15.320,17.090
-0.698,-0.579,0.242,-63.843,36.255,15.564
-0.797,-1.176,0.272,-67.139,47.913,10.620
-1.041,-1.765,0.315,-73.059,54.199,5.859
-1.231,-2.324,0.377,-76.782,54.443,-4.272
-1.325,-2.575,0.555,-63.110,46.570,-28.442
-1.299,-2.747,0.761,-25.513,15.991,-60.669
-1.180,-2.732,0.936,18.188,-44.800,-98.206
-0.958,-2.717,1.085,59.631,-126.221,-129.089
-0.751,-2.499,1.219,98.694,-204.041,-141.663
-0.551,-2.251,1.206,131.592,-252.747,-134.766
-0.252,-1.972,1.183,154.785,-256.165,-115.173
-0.040,-1.707,1.130,169.556,-218.628,-91.370
0.115,-1.488,1.096,179.077,-149.536,-71.960
0.314,-1.305,1.130,176.758,-60.913,-65.674
0.447,-1.176,1.265,163.635,24.231,-68.298
0.502,-1.019,1.375,141.541,79.956,-69.946
0.564,-0.857,1.426,110.962,97.656,-59.875
0.624,-0.733,1.405,77.332,84.351,-37.231
0.584,-0.694,1.340,46.692,52.490,-13.184
0.465,-0.684,1.260,20.813,16.724,3.296
0.289,-0.655,1.200,-1.831,-11.658,15.015
0.130,-0.634,1.120,-19.775,-30.579,25.696
0.036,-0.571,1.023,-35.095,-38.574,32.043
-0.034,-0.504,0.935,-47.546,-34.546,34.363
-0.112,-0.468,0.833,-53.345,-23.071,34.485
-0.157,-0.426,0.723,-53.589,-8.484,32.288
-0.143,-0.367,0.657,-50.537,7.019,26.733
-0.089,-0.315,0.635,-41.992,16.907,19.348
-0.027,-0.291,0.655,-28.076,13.977,13.245
-0.016,-0.312,0.669,-14.282,-0.488,12.268
0.012,-0.325,0.759,-5.188,-18.982,14.587
-0.004,-0.324,0.814,-1.831,-37.842,20.386
-0.045,-0.276,0.871,-2.136,-50.354,26.306
-0.094,-0.229,0.899,-2.808,-53.162,30.151
-0.119,-0.203,0.952,-3.418,-46.570,30.640
-0.152,-0.219,0.977,-3.113,-35.217,28.015
-0.125,-0.240,1.018,-0.977,-22.583,25.330
-0.097,-0.245,1.028,0.671,-12.817,22.522
-0.075,-0.221,1.052,0.549,-6.653,19.409
-0.059,-0.247,1.086,-0.793,-2.380,17.700
-0.021,-0.248,1.104,-4.333,0.061,18.555
-0.006,-0.215,1.085,-9.949,1.892,19.897
0.023,-0.198,1.056,-14.343,6.226,20.935
0.039,-0.235,1.045,-15.625,13.123,19.897
0.045,-0.247,1.061,-15.442,19.775,18.311
0.048,-0.225,1.045,-15.137,22.766,17.944
0.052,-0.225,1.014,-15.686,22.339,18.188
0.058,-0.224,0.989,-18.494,20.386,17.456
0.031,-0.228,0.976,-19.287,18.066,14.709
0.020,-0.224,0.983,-17.883,15.442,11.597
0.038,-0.212,0.957,-17.334,10.620,9.827
0.037,-0.206,0.921,-17.578,5.005,8.484
0.032,-0.185,0.873,-18.250,1.221,6.042
0.032,-0.174,0.840,-16.724,0.183,3.357
0.024,-0.177,0.820,-10.254,1.465,-1.465
0.022,-0.207,0.831,0.427,4.700,-7.507
0.039,-0.227,0.884,10.681,6.775,-11.658
0.055,-0.237,0.924,18.555,6.165,-11.902
0.070,-0.229,0.939,23.315,4.272,-10.376
0.074,-0.212,0.952,22.461,3.418,-9.766
0.065,-0.220,0.946,19.958,4.333,-10.193
0.061,-0.250,0.943,18.799,7.446,-11.292
0.084,-0.247,0.971,17.761,12.512,-12.573
0.109,-0.278,1.003,14.771,14.526,-10.925
0.124,-0.281,1.003,9.094,11.353,-6.897
0.115,-0.270,1.001,2.625,6.592,-2.136
0.093,-0.268,1.005,-2.014,3.235,2.563
0.058,-0.261,1.027,-4.578,1.953,5.127
0.045,-0.251,1.036,-7.629,0.854,4.761
0.050,-0.259,1.005,-12.207,-0.732,2.502
0.064,-0.276,0.959,-15.625,-1.282,-0.244
0.090,-0.269,0.909,-15.503,0.671,-2.014
0.119,-0.252,0.876,-11.597,5.310,-2.380
0.128,-0.240,0.868,-6.104,10.010,-1.465
0.121,-0.236,0.879,-1.770,12.878,-0.427
0.101,-0.243,0.889,2.197,12.268,-0.366
0.090,-0.245,0.894,4.761,8.545,-1.099
0.088,-0.235,0.893,6.897,3.174,-2.502
0.092,-0.232,0.892,8.667,-1.526,-3.479
0.088,-0.240,0.899,10.071,-3.967,-3.357
0.091,-0.238,0.908,10.620,-3.540,-1.953
0.082,-0.219,0.919,10.925,-0.671,-0.061
0.066,-0.212,0.935,11.108,3.601,1.526
0.057,-0.221,0.959,10.437,6.409,1.282
0.059,-0.235,0.983,9.094,5.127,-0.061
0.067,-0.242,1.000,7.141,1.587,-1.343
0.073,-0.245,1.000,4.761,-2.930,-1.648
0.080,-0.250,0.996,1.770,-6.348,-1.404
0.087,-0.255,0.980,-1.709,-6.531,-0.488
0.093,-0.253,0.960,-3.235,-4.761,0.183
0.090,-0.250,0.945,-3.418,-2.014,0.610
0.095,-0.243,0.933,-2.625,0.916,1.709
0.099,-0.235,0.926,-1.404,3.296,2.686

0.349,0.780,1.143,33.569,26.245,-4.639
0.394,0.900,1.259,33.508,16.418,-12.817
0.443,0.965,1.392,30.334,4.700,-24.231
0.472,1.025,1.515,24.841,-6.470,-37.048
0.551,1.092,1.619,19.531,-17.639,-48.218
0.652,1.191,1.694,13.977,-27.649,-56.030
0.705,1.313,1.713,8.057,-36.560,-58.716
0.714,1.420,1.633,0.183,-42.847,-57.373
0.717,1.543,1.522,-9.033,-41.870,-54.260
0.639,1.701,1.392,-14.221,-34.851,-48.645
0.570,1.775,1.271,-14.221,-23.132,-39.368
0.470,1.822,1.159,-12.451,-10.071,-34.973
0.339,1.857,1.056,-10.803,1.709,-34.180
0.207,1.821,0.940,-11.353,11.047,-28.259
0.052,1.713,0.798,-12.939,18.799,-22.461
-0.101,1.562,0.661,-13.672,26.184,-24.353
-0.235,1.375,0.523,-11.902,29.846,-32.532
-0.321,1.128,0.386,-7.202,25.574,-44.861
-0.382,0.900,0.286,1.831,11.292,-63.232
-0.433,0.672,0.221,14.343,-12.024,-83.740
-0.458,0.424,0.177,28.809,-42.358,-102.783
-0.400,0.179,0.195,42.847,-74.951,-117.798
-0.276,-0.008,0.258,52.551,-105.530,-122.131
-0.177,-0.196,0.305,54.077,-128.479,-109.375
-0.141,-0.417,0.383,49.561,-137.573,-79.285
-0.179,-0.628,0.411,42.725,-129.578,-42.542
-0.327,-0.852,0.402,29.602,-96.008,-10.193
-0.528,-1.077,0.416,6.226,-39.734,9.277
-0.756,-1.351,0.461,-19.043,23.193,16.602
-0.961,-1.703,0.538,-36.011,75.439,14.465
-1.055,-1.984,0.657,-48.706,99.792,4.089
-1.083,-2.160,0.743,-60.059,86.792,-7.874
-0.968,-2.267,0.755,-60.547,38.696,-22.156
-0.690,-2.309,0.858,-41.992,-28.870,-41.504
-0.514,-2.143,0.923,-4.761,-99.731,-61.523
-0.334,-1.932,0.973,48.035,-152.954,-71.106
-0.113,-1.767,1.048,110.352,-176.453,-70.740
0.003,-1.609,1.101,164.734,-164.673,-65.002
0.059,-1.467,1.143,202.454,-127.197,-51.575
0.104,-1.406,1.152,213.684,-72.815,-37.720
0.231,-1.251,1.257,193.420,-8.423,-33.997
0.347,-1.052,1.399,156.860,48.706,-41.931
0.376,-0.902,1.460,121.582,79.468,-52.795
0.320,-0.769,1.336,86.304,81.787,-60.242
0.340,-0.694,1.185,47.119,74.097,-57.251
0.467,-0.609,1.160,12.268,63.904,-49.255
0.478,-0.583,1.019,-3.723,42.419,-39.978
0.444,-0.631,0.859,-5.920,19.165,-29.053
0.427,-0.581,0.812,-4.028,4.700,-23.743
0.364,-0.489,0.803,2.747,-5.432,-17.883
0.263,-0.501,0.771,7.812,-11.719,-5.493
0.168,-0.494,0.797,5.798,-10.925,6.104
0.099,-0.446,0.878,-0.610,-6.104,18.311
0.014,-0.395,0.884,-7.080,-3.296,29.907
-0.080,-0.344,0.867,-15.259,1.282,36.255
-0.147,-0.324,0.876,-23.743,10.254,35.828
-0.181,-0.294,0.863,-28.137,16.724,31.372
-0.200,-0.281,0.843,-26.855,18.494,24.963
-0.154,-0.250,0.848,-23.193,16.541,15.259
-0.105,-0.242,0.841,-15.198,6.226,5.554
-0.035,-0.267,0.845,-6.348,-5.188,-2.136
0.018,-0.272,0.913,2.319,-14.221,-7.080
0.040,-0.248,0.951,8.362,-24.292,-7.080
0.051,-0.264,0.973,9.705,-31.982,-2.991
0.070,-0.281,1.001,6.653,-33.875,-0.244
0.098,-0.284,1.028,1.770,-30.212,2.197
0.097,-0.265,1.044,-2.869,-23.315,6.348
0.070,-0.262,1.043,-5.859,-14.099,11.047
0.044,-0.278,1.037,-7.751,-4.883,14.832
0.028,-0.281,1.043,-8.728,3.967,15.991
0.017,-0.261,1.035,-8.728,11.719,14.343
0.027,-0.236,1.007,-8.301,16.907,11.414
0.053,-0.242,0.978,-8.545,19.165,8.301
0.067,-0.260,0.977,-10.254,19.775,7.751
0.089,-0.255,0.954,-11.292,16.846,9.094
0.101,-0.224,0.908,-11.597,12.146,10.315
0.091,-0.206,0.883,-12.756,8.789,10.681
0.068,-0.194,0.846,-13.428,6.348,9.949
0.062,-0.222,0.840,-11.780,5.798,7.751
0.072,-0.236,0.837,-8.667,5.676,4.944
0.072,-0.234,0.835,-4.028,4.333,3.540
0.065,-0.231,0.834,2.197,3.479,3.296
0.065,-0.228,0.840,8.789,3.784,1.587
0.059,-0.219,0.849,14.526,5.798,-1.831
0.048,-0.234,0.868,19.897,8.606,-4.700
0.038,-0.282,0.917,24.109,10.986,-7.690
0.061,-0.290,0.970,25.024,10.254,-9.460
0.080,-0.270,1.000,21.790,4.517,-8.789
0.086,-0.265,1.012,15.625,-2.930,-6.287
0.079,-0.276,1.026,6.653,-9.155,-3.296
0.067,-0.296,1.031,-2.869,-14.038,-1.282
0.073,-0.304,1.038,-10.437,-16.907,-0.366
0.069,-0.314,1.031,-13.977,-18.982,0.732
0.063,-0.318,1.014,-14.832,-19.592,2.014
0.063,-0.310,1.003,-13.367,-16.663,2.380
0.065,-0.291,0.989,-11.353,-10.010,2.686
0.060,-0.286,0.976,-10.132,-0.793,2.991
0.061,-0.302,0.978,-9.644,9.827,2.991
0.063,-0.319,0.973,-9.155,18.616,2.808
0.069,-0.310,0.966,-7.263,24.109,2.258
0.083,-0.303,0.968,-5.371,27.771,2.502
0.095,-0.299,0.997,-5.554,29.175,4.578
0.086,-0.302,1.011,-8.057,27.405,8.179
0.067,-0.264,1.002,-11.658,23.193,11.597
0.059,-0.245,0.986,-15.076,19.592,13.855
0.063,-0.242,0.972,-19.043,17.090,14.771
0.065,-0.270,0.947,-23.560,14.587,14.343
0.085,-0.283,0.962,-28.381,12.878,14.343
0.101,-0.255,0.952,-32.043,10.864,17.944
0.109,-0.232,0.931,-35.217,9.399,26.062
0.101,-0.207,0.903,-38.879,9.827,33.630
0.078,-0.191,0.872,-39.307,11.353,37.781
0.043,-0.190,0.850,-33.020,12.573,36.804
0.040,-0.190,0.868,-21.118,13.245,31.433
0.045,-0.191,0.893,-8.362,11.841,25.208
0.051,-0.195,0.931,1.160,8.972,20.630
0.054,-0.190,0.977,5.432,5.432,16.907
0.051,-0.179,1.000,5.676,1.648,14.526
0.041,-0.184,1.011,3.296,-1.282,13.062

0.499,0.765,1.173,25.024,64.392,11.169
0.548,0.917,1.292,28.259,65.979,6.287
0.587,1.093,1.409,28.992,65.552,1.038
0.676,1.218,1.543,23.682,63.416,-1.709
0.750,1.286,1.589,9.705,55.054,-3.479
0.772,1.343,1.582,-14.099,41.748,-3.174
0.738,1.417,1.502,-40.955,27.222,0.183
0.664,1.489,1.352,-59.448,17.029,3.784
0.581,1.548,1.195,-66.223,18.250,4.028
0.499,1.599,1.050,-61.890,30.334,1.221
0.447,1.618,0.929,-47.119,47.485,-2.991
0.414,1.596,0.863,-25.330,63.538,-8.606
0.371,1.535,0.799,-0.854,72.388,-14.587
0.346,1.464,0.786,23.437,74.646,-17.761
0.259,1.394,0.860,43.030,70.984,-14.465
0.158,1.302,0.911,49.194,59.631,-8.179
0.084,1.189,0.902,34.912,44.739,-9.583
0.001,1.050,0.868,6.287,28.992,-20.874
-0.057,0.898,0.791,-27.649,12.146,-36.926
-0.091,0.725,0.662,-59.998,-5.005,-51.514
-0.105,0.515,0.521,-85.510,-19.653,-61.890
-0.079,0.275,0.385,-102.722,-28.870,-68.359
-0.066,0.017,0.210,-108.154,-32.227,-71.655
-0.122,-0.237,0.083,-96.802,-29.236,-69.458
-0.195,-0.468,0.042,-64.819,-18.921,-63.293
-0.224,-0.641,0.099,-20.203,-4.272,-57.556
-0.281,-0.732,0.188,23.193,10.986,-52.551
-0.333,-0.830,0.360,56.030,20.081,-47.913
-0.307,-0.992,0.531,68.420,13.733,-44.250
-0.407,-1.200,0.633,63.110,-10.193,-46.021
-0.564,-1.324,0.682,48.157,-41.809,-55.420
-0.575,-1.327,0.751,31.128,-74.585,-68.298
-0.442,-1.454,0.822,18.250,-105.164,-75.623
-0.345,-1.489,0.904,13.245,-135.437,-80.566
-0.332,-1.462,0.894,13.000,-158.752,-87.524
-0.396,-1.447,0.749,19.104,-169.800,-83.496
-0.276,-1.321,0.748,29.175,-155.273,-73.914
-0.149,-1.293,0.749,49.072,-130.432,-57.922
-0.125,-1.271,0.742,76.660,-104.309,-42.603
-0.097,-1.251,0.742,103.394,-75.073,-25.574
-0.065,-1.333,0.837,132.812,-47.119,-11.902
-0.032,-1.369,1.128,157.776,-23.499,-11.597
-0.019,-1.234,1.404,166.931,-10.742,-28.381
0.032,-1.055,1.595,160.400,-11.353,-54.199
0.156,-0.972,1.669,133.362,-19.775,-72.266
0.320,-0.875,1.706,91.614,-33.569,-78.613
0.458,-0.771,1.592,44.556,-52.673,-73.853
0.510,-0.701,1.352,3.418,-66.345,-59.387
0.529,-0.729,1.133,-25.574,-60.608,-40.955
0.528,-0.682,0.965,-41.321,-37.109,-28.076
0.483,-0.560,0.792,-43.396,-5.615,-17.578
0.431,-0.482,0.707,-34.729,27.100,-5.798
0.397,-0.472,0.718,-19.165,54.443,5.005
0.337,-0.465,0.754,-0.793,68.420,12.390
0.253,-0.441,0.790,15.991,69.153,15.747
0.196,-0.401,0.841,26.672,62.500,17.700
0.148,-0.369,0.881,29.480,53.467,19.836
0.128,-0.372,0.948,25.757,45.532,21.667
0.118,-0.358,1.014,17.700,38.818,23.804
0.099,-0.314,1.006,7.629,29.785,24.353
0.115,-0.265,0.981,-4.883,21.057,23.071
0.105,-0.249,0.935,-15.869,13.672,21.484
0.098,-0.250,0.889,-21.667,9.216,20.081
0.112,-0.255,0.870,-20.996,8.789,16.846
0.131,-0.252,0.863,-13.672,9.705,10.010
0.162,-0.257,0.852,-4.639,10.010,2.808
0.202,-0.249,0.837,2.625,11.292,-2.747
0.244,-0.242,0.838,8.179,14.893,-6.287
0.285,-0.269,0.842,14.160,19.958,-8.484
0.343,-0.312,0.878,20.203,24.780,-8.545
0.375,-0.307,0.927,23.254,27.771,-3.540
0.375,-0.300,0.955,23.804,28.198,5.554
0.366,-0.297,0.978,21.790,28.259,13.916
0.343,-0.300,1.003,15.625,27.466,19.775
0.299,-0.295,1.022,8.362,24.536,22.339
0.267,-0.261,1.013,1.526,20.020,20.630
0.248,-0.234,0.993,-4.272,14.099,16.602
0.239,-0.240,0.962,-9.460,8.179,12.878
0.233,-0.237,0.925,-13.489,1.709,9.827
0.230,-0.223,0.876,-13.672,-3.357,7.568
0.229,-0.203,0.833,-10.254,-6.042,4.944
0.232,-0.203,0.817,-4.150,-7.202,1.160
0.250,-0.239,0.846,2.686,-8.789,-3.052
0.280,-0.260,0.896,6.836,-12.207,-4.333
0.298,-0.276,0.941,8.728,-18.372,-1.404
0.317,-0.270,0.972,8.362,-24.719,5.554
0.305,-0.262,0.975,5.798,-30.029,12.634
0.268,-0.262,0.973,1.709,-33.020,17.151
0.244,-0.265,0.963,-2.258,-32.104,17.761
0.232,-0.266,0.948,-5.066,-27.954,15.259
0.229,-0.264,0.932,-6.836,-23.376,11.169
