aX,aY,aZ,gX,gY,gZ
0.825,2.8,-0.385,22.217,69.153,-28.564
1.421,4.0,-1.506,126.648,28.503,-18.372
1.837,4.0,-1.558,125.61,30.334,47.302
2.938,4.0,1.666,-87.83,134.644,157.104
4.0,4.0,4.0,-162.17,163.391,222.717
4.0,4.0,2.583,110.107,-4.578,364.563
2.457,1.563,-0.176,446.228,-214.661,557.19
0.974,-2.087,-2.818,569.519,-360.352,567.688
0.34,-2.681,-2.323,529.358,-344.788,399.963
0.319,-3.304,-2.774,524.841,-314.392,282.898
0.583,-2.424,-3.228,542.419,-312.866,256.104
1.407,-1.853,-2.098,517.09,-214.233,308.105
2.887,-0.731,0.531,450.012,-68.176,389.526
4.0,2.65,2.818,228.699,-28.32,386.963
2.465,0.73,-1.869,169.25,-244.324,431.641
1.683,-0.018,0.026,211.731,-266.235,470.52
1.425,-1.179,0.896,236.938,-240.845,479.248
1.07,-0.434,1.342,247.192,-268.372,458.313
1.512,0.349,1.879,156.86,-258.362,414.917
1.745,0.059,1.727,123.779,-266.052,399.658
1.063,-0.266,1.505,134.338,-298.889,371.521
0.045,-0.572,1.062,109.314,-327.026,324.585
-0.548,-0.612,0.826,79.59,-335.754,255.066
-0.962,-0.397,0.801,70.129,-337.219,183.044
-1.589,0.506,0.815,59.998,-332.642,131.836
-1.625,0.983,1.052,42.725,-292.786,123.108
-1.586,0.965,1.1,39.917,-252.38,127.869
-1.644,0.872,0.943,49.133,-229.858,128.845
-1.526,0.868,0.867,49.316,-207.52,127.075
-1.219,1.124,0.974,32.776,-178.223,127.014
-0.975,1.311,1.01,12.085,-145.325,127.563
-0.821,1.133,1.042,2.625,-113.159,123.779
-0.709,0.8,1.062,3.418,-87.524,116.516
-0.607,0.528,1.007,10.864,-69.458,107.91
-0.689,0.345,0.938,13.184,-55.359,102.234
-0.92,0.102,0.975,8.24,-46.082,103.271
-1.149,-0.057,0.868,0.305,-39.917,98.572
-1.196,0.031,0.759,-6.531,-34.912,83.008
-1.155,0.109,0.56,-17.578,-26.306,64.087
-1.013,0.267,0.433,-28.564,-7.996,48.523
-0.876,0.203,0.488,-35.461,10.62,42.725
-0.736,0.073,0.447,-40.039,23.01,38.086
-0.586,0.008,0.439,-39.429,29.602,30.334
-0.395,0.124,0.501,-40.1,31.25,23.315
-0.295,0.252,0.499,-42.542,28.992,19.409
-0.219,0.314,0.526,-44.678,28.687,16.113
-0.147,0.323,0.501,-44.25,30.518,11.841
-0.108,0.22,0.504,-42.908,34.668,7.263
-0.122,0.055,0.456,-43.518,38.33,-1.404
-0.167,-0.093,0.372,-44.8,40.039,-15.564
-0.184,-0.217,0.338,-46.997,41.748,-33.691
-0.142,-0.212,0.448,-49.438,43.396,-52.368
-0.138,-0.19,0.615,-51.453,40.955,-68.237
-0.173,-0.167,0.72,-55.054,33.997,-83.618
-0.188,-0.099,0.682,-57.495,24.597,-98.816
-0.187,0.105,0.558,-55.542,16.541,-111.572
-0.167,0.328,0.465,-52.246,15.259,-116.882
-0.188,0.47,0.417,-55.847,21.057,-115.845
-0.267,0.504,0.399,-72.083,29.846,-112.915
-0.414,0.525,0.416,-96.313,38.635,-110.291
-0.517,0.443,0.443,-121.155,46.509,-108.704
-0.682,0.517,0.598,-139.648,55.969,-112.488
-0.787,0.549,0.635,-146.851,53.833,-110.779
-0.813,0.536,0.652,-142.029,50.232,-108.276
-0.79,0.596,0.617,-135.193,49.866,-107.3
-0.686,0.75,0.582,-131.775,47.791,-103.394
-0.55,0.953,0.568,-126.099,43.762,-98.816
-0.378,1.108,0.577,-123.352,37.842,-93.872
-0.269,1.174,0.532,-130.249,31.494,-89.233
-0.215,1.159,0.476,-144.836,30.273,-88.44
-0.172,1.131,0.447,-155.64,38.452,-95.886
-0.087,1.201,0.561,-155.334,52.124,-102.966
-0.111,1.386,0.654,-136.963,56.274,-99.854
-0.158,1.561,0.738,-101.44,51.941,-88.135
-0.208,1.663,0.681,-60.669,39.673,-77.942
-0.142,1.785,0.605,-35.461,29.48,-76.05
-0.098,1.93,0.581,-43.396,22.339,-68.787
0.059,1.851,0.629,-69.275,20.752,-53.65
0.284,1.686,0.769,-84.229,24.292,-44.495
0.318,1.468,0.834,-79.773,19.531,-35.217
0.285,1.396,0.867,-56.885,13.062,-27.283
0.195,1.212,0.766,-21.179,4.333,-16.602
0.084,1.035,0.62,14.404,-6.042,-12.695
-0.054,0.884,0.49,35.339,-16.724,-16.602
-0.138,0.846,0.348,43.152,-24.475,-25.94
-0.253,0.822,0.233,45.959,-26.611,-34.668
-0.346,0.774,0.13,41.443,-23.621,-39.917
-0.328,0.653,0.15,26.672,-7.69,-44.312
-0.201,0.589,0.28,3.662,17.212,-48.706
-0.023,0.617,0.432,-16.602,39.001,-52.673
0.087,0.651,0.468,-26.123,48.523,-54.321
0.153,0.73,0.455,-20.569,47.302,-55.42
0.164,0.781,0.399,-8.606,36.743,-54.565
0.108,0.752,0.301,2.014,22.705,-56.702
0.036,0.69,0.303,1.404,16.663,-62.195
-0.021,0.658,0.397,-13.611,18.127,-67.2
-0.015,0.687,0.566,-35.767,25.574,-72.021
0.05,0.753,0.687,-54.443,30.09,-73.364
0.091,0.776,0.642,-64.087,25.513,-69.214
0.205,0.845,0.576,-64.392,19.714,-65.674
0.259,1.009,0.54,-59.753,15.991,-63.171
0.288,1.044,0.454,-48.645,14.343,-60.059
0.293,1.116,0.385,-34.546,17.517,-66.528
0.275,1.211,0.381,-23.682,19.348,-70.923
0.305,1.286,0.424,-13.733,15.686,-66.04
0.371,1.274,0.437,-0.183,7.507,-56.58
0.403,1.156,0.413,15.259,-2.197,-47.485
0.37,0.991,0.367,28.259,-12.146,-41.748
0.323,0.826,0.337,35.278,-19.653,-35.828
0.317,0.672,0.326,36.621,-23.315,-27.344
0.358,0.534,0.322,34.546,-24.353,-18.433
0.411,0.441,0.323,29.175,-22.766,-11.414
0.447,0.426,0.328,20.203,-19.165,-8.301
0.46,0.466,0.313,11.78,-15.137,-7.263
0.436,0.525,0.264,5.981,-13.306,-6.775
0.38,0.599,0.22,-0.488,-11.841,-6.531
0.328,0.689,0.22,-6.165,-8.118,-5.737
0.267,0.649,0.206,-9.094,-2.93,-1.648
0.267,0.719,0.287,-11.475,4.089,2.441
0.761,0.915,-0.394,54.077,84.045,-19.653
0.687,0.692,-0.318,47.241,69.641,-5.554
0.436,0.664,-0.373,8.911,47.668,9.949
0.122,0.793,-0.299,-14.16,34.668,30.64
-0.077,1.048,-0.286,-7.446,38.818,47.729
0.103,0.972,-0.54,23.071,61.951,56.946
0.318,0.603,-0.947,54.688,84.717,67.383
0.286,0.719,-0.83,58.289,84.839,76.66
0.783,0.783,-1.594,50.171,64.697,70.74
2.384,1.374,-1.595,75.806,49.011,47.729
4.0,1.386,-0.979,119.507,42.175,46.448
4.0,1.731,-2.196,80.933,48.706,-19.836
4.0,2.744,-4.0,178.772,55.359,-194.702
4.0,3.77,0.197,546.082,31.921,-115.112
3.735,0.999,0.61,516.113,-1.77,219.971
-0.214,-1.286,0.19,159.424,-106.262,236.145
-1.3,-1.662,0.945,-107.178,-102.417,158.325
-1.659,-0.421,-0.622,-160.217,-122.986,134.155
-0.325,0.266,-0.825,-95.215,-80.383,150.574
0.397,1.185,-0.468,-6.836,-14.954,100.22
1.101,2.762,-0.112,58.533,22.583,18.188
2.029,3.365,-0.108,121.704,41.443,-12.085
2.052,2.061,-0.031,175.781,10.132,24.17
1.333,0.746,-0.243,168.518,-29.785,87.158
1.11,-0.477,-0.251,147.888,-26.794,151.062
0.991,-0.918,-0.165,133.362,1.709,177.368
1.116,-0.726,-0.04,106.628,38.147,160.278
1.313,-0.219,-0.067,65.674,58.777,115.906
1.307,-0.083,0.046,20.996,67.261,85.144
1.195,-0.306,0.196,-30.151,64.392,76.111
0.911,-0.262,0.051,-78.735,41.565,69.763
0.607,0.158,-0.075,-92.651,22.339,69.153
0.529,0.479,-0.068,-71.167,24.78,77.026
0.639,0.851,0.083,-51.392,41.687,78.125
0.608,1.285,0.032,-42.053,44.373,79.102
0.56,1.445,-0.048,-19.409,36.987,89.783
0.367,1.496,-0.155,5.554,28.076,95.825
0.221,1.38,-0.267,27.832,25.33,96.619
0.278,1.114,-0.207,51.697,31.372,92.407
0.345,0.859,-0.091,71.899,37.231,79.712
0.502,0.661,0.006,85.754,42.175,66.65
0.874,0.099,0.042,92.834,47.485,61.462
0.796,-0.028,-0.017,75.012,39.49,50.293
0.602,-0.016,-0.055,61.829,31.311,53.406
0.726,0.082,0.032,57.007,30.579,65.43
0.588,0.666,-0.019,42.236,24.231,74.585
0.582,0.795,-0.082,24.658,10.986,90.576
0.663,0.712,-0.237,8.484,7.019,96.619
0.652,0.65,-0.394,-10.071,10.498,91.98
0.754,0.752,-0.346,-20.325,23.804,81.604
0.747,1.036,-0.116,-15.198,32.349,73.853
0.62,1.228,0.106,-6.042,28.381,78.613
0.448,1.177,0.103,-2.319,18.494,91.064
0.358,1.085,-0.12,-0.488,7.935,97.595
0.364,0.924,-0.36,6.775,-0.488,94.91
0.398,0.564,-0.453,12.878,-7.019,85.449
0.422,0.235,-0.393,-1.282,-8.057,71.594
0.466,0.245,-0.244,-35.95,1.282,58.96
0.486,0.571,-0.101,-68.237,18.25,52.551
0.535,1.047,0.005,-80.688,33.997,53.04
0.643,1.417,0.037,-76.721,39.063,55.969
0.637,1.485,-0.031,-61.401,31.555,57.678
0.505,1.28,-0.161,-43.823,20.447,56.702
0.238,0.994,-0.285,-31.25,12.878,51.575
-0.088,0.778,-0.37,-19.714,13.672,44.25
-0.195,0.727,-0.411,-4.883,25.635,38.147
0.016,0.708,-0.346,5.31,37.72,41.504
0.413,0.591,-0.332,-3.54,42.847,48.401
0.919,0.642,-0.257,-22.339,50.659,41.504
1.374,1.017,-0.095,-39.917,54.016,22.217
1.439,1.253,-0.079,-51.575,35.645,3.235
1.162,1.313,-0.216,-44.373,11.23,-4.456
0.89,1.301,-0.334,-27.466,-4.944,-3.662
0.713,1.126,-0.357,-13.733,-14.465,-1.16
0.418,0.911,-0.342,-3.967,-19.714,-1.16
0.245,0.637,-0.304,1.404,-18.86,-2.38
0.076,0.529,-0.279,-0.732,-15.503,-2.686
-0.004,0.515,-0.296,-10.071,-12.512,0.122
0.124,0.637,-0.224,-16.663,-1.892,3.845
0.383,0.793,-0.171,-20.264,9.094,5.31
0.62,0.827,-0.142,-24.109,13.794,5.676
0.701,0.841,-0.174,-25.757,12.268,4.333
0.744,0.788,-0.214,-21.851,6.287,5.493
0.732,0.715,-0.251,-16.357,-0.488,9.216
0.636,0.665,-0.272,-16.113,-3.723,11.414
0.514,0.677,-0.281,-22.827,-2.808,12.451
0.464,0.738,-0.286,-28.687,-0.305,14.465
0.479,0.774,-0.298,-29.907,3.052,16.357
0.454,0.875,-0.332,-28.87,4.639,18.799
0.423,0.926,-0.343,-26.794,2.563,20.996
0.438,0.884,-0.357,-22.156,2.014,20.203
0.442,0.906,-0.368,-18.311,3.235,16.907
0.445,0.945,-0.36,-15.747,2.258,14.099
0.478,0.954,-0.339,-12.573,0.916,10.864
0.525,0.953,-0.313,-5.493,0.305,7.568
0.544,0.913,-0.297,1.526,-2.502,5.676
0.505,0.854,-0.295,3.784,-6.958,4.578
0.463,0.78,-0.295,4.395,-9.216,3.967
0.435,0.723,-0.285,3.174,-9.277,3.357
0.406,0.708,-0.261,-0.732,-8.24,2.197
0.388,0.74,-0.242,-5.798,-6.165,2.014
0.393,0.807,-0.248,-9.46,-3.418,2.502
0.427,0.861,-0.275,-11.353,-0.732,3.784
0.488,0.976,-0.286,-10.62,2.014,4.395
0.471,0.905,-0.355,-8.179,-0.427,5.188
0.416,0.945,-0.402,-5.249,-2.93,4.333
0.445,0.945,-0.368,-4.028,-0.122,-1.587
0.433,0.932,-0.405,-5.371,-4.456,-4.15
0.405,0.92,-0.423,-4.333,-9.888,-6.226
0.434,0.937,-0.385,-1.099,-8.911,-9.949
0.473,0.96,-0.36,1.587,-8.667,-11.841
0.503,0.949,-0.337,5.676,-9.644,-12.878
0.521,0.923,-0.298,10.01,-10.62,-15.015
0.497,0.932,-0.285,10.864,-11.78,-16.479
0.517,0.867,-0.27,10.559,-12.146,-15.93
0.555,0.773,-0.266,16.235,-8.789,-18.616
0.557,0.745,-0.259,21.179,-5.981,-24.048
0.536,0.756,-0.262,20.935,-5.737,-25.94
0.532,0.777,-0.26,20.325,-5.859,-23.804
-0.879,-0.04,-1.081,66.101,-46.204,-63.538
-0.958,-0.733,-0.621,67.688,0.549,-48.096
-0.678,-1.809,-0.084,62.622,48.584,-34.546
-0.255,-2.593,0.422,51.025,87.402,-46.814
-0.312,-2.393,0.372,37.72,72.693,-103.149
-0.501,-1.308,-0.224,23.315,31.25,-177.917
-0.425,-0.241,-0.745,3.54,28.259,-216.003
-0.057,0.207,-0.641,-23.743,67.993,-204.651
0.316,0.213,-0.23,-44.067,101.257,-179.626
1.129,0.193,0.055,-51.392,117.737,-169.556
2.615,0.036,0.367,-45.959,142.456,-163.269
3.938,-0.471,1.309,-17.761,173.828,-157.776
4.0,-0.36,2.066,23.499,157.837,-185.852
4.0,-0.454,1.486,65.43,56.58,-230.835
3.073,-0.011,0.12,89.783,-59.57,-254.822
2.471,-1.989,-1.203,57.983,-74.829,-227.6
1.873,-2.508,-1.438,-93.018,18.86,-264.343
2.27,-3.438,-0.768,-87.097,156.189,-272.705
2.337,-3.5,1.206,74.707,236.877,-263.855
1.179,-3.214,2.301,171.448,177.856,-271.851
-0.047,-2.189,1.314,104.004,23.926,-317.688
-0.964,-2.108,-0.101,46.753,-80.627,-325.562
-1.613,-1.951,-0.746,24.17,-80.139,-314.392
-1.558,-1.995,-0.642,23.743,-27.039,-294.434
-1.235,-1.932,-0.353,10.315,7.263,-281.921
-0.907,-1.58,-0.414,-1.221,6.47,-281.006
-0.294,-1.148,-0.501,4.761,13.672,-274.902
0.473,-0.751,-0.301,26.306,48.218,-255.066
1.197,-0.387,0.07,49.194,87.097,-225.464
1.778,0.009,0.34,42.725,98.694,-195.312
1.781,0.292,0.546,2.014,76.172,-165.1
1.158,0.203,0.66,-41.504,24.292,-132.935
0.473,-0.278,0.368,-44.861,-41.87,-108.215
-0.076,-0.965,-0.177,-31.677,-98.572,-100.83
-0.581,-1.435,-0.705,-41.016,-110.84,-99.976
-0.631,-1.887,-1.13,-10.864,-72.632,-84.9
-0.455,-2.065,-1.07,102.722,-24.841,-74.28
-0.521,-2.143,-0.471,241.089,2.625,-78.247
-0.666,-2.346,0.206,327.637,7.202,-93.933
-0.794,-2.703,0.644,314.087,-3.174,-115.356
-0.94,-2.759,0.557,201.843,-36.743,-135.742
-0.944,-2.573,-0.097,109.863,-91.858,-148.376
-0.894,-2.27,-0.946,104.309,-124.268,-146.729
-0.671,-2.066,-1.184,159.119,-108.704,-128.601
-0.892,-1.321,-1.229,203.491,-63.782,-111.267
-0.777,-1.002,-0.721,205.811,-7.629,-91.492
-0.514,-0.667,-0.389,157.043,33.936,-82.886
-0.432,-0.413,-0.297,92.957,60.974,-70.374
-0.205,-0.457,-0.129,35.583,80.688,-51.025
0.035,-0.518,0.017,0.61,81.177,-38.696
0.172,-0.588,0.095,-9.46,54.321,-34.79
0.102,-0.458,0.053,-10.986,10.071,-33.936
-0.072,-0.37,-0.059,-2.441,-32.043,-21.912
-0.215,-0.477,-0.193,16.479,-61.646,-1.77
-0.363,-0.639,-0.389,32.776,-75.867,10.742
-0.436,-0.813,-0.555,43.457,-70.618,11.108
-0.437,-0.874,-0.635,54.016,-51.392,3.906
-0.264,-0.891,-0.661,68.237,-30.945,-3.479
0.026,-0.893,-0.537,79.285,-17.456,-11.169
0.184,-1.024,-0.522,106.628,-28.748,-15.259
-0.156,-1.185,-0.782,153.503,-54.504,-16.479
-0.282,-1.247,-1.124,195.312,-55.664,-7.568
-0.061,-1.227,-1.12,213.623,-30.396,1.221
0.02,-1.113,-0.979,191.833,-12.329,-6.775
-0.165,-0.74,-0.836,148.926,-7.629,-17.639
-0.151,-0.775,-0.753,113.892,-6.714,-11.536
-0.099,-0.879,-0.785,83.74,-11.658,-2.075
-0.066,-0.986,-0.883,57.251,-18.494,2.808
-0.028,-1.066,-0.953,35.156,-16.174,0.488
-0.083,-0.995,-1.09,9.46,-6.714,-8.972
-0.121,-0.907,-1.092,-21.118,8.789,-15.93
-0.124,-0.855,-0.863,-50.171,27.039,-17.578
-0.27,-0.519,-0.522,-68.542,37.842,-17.273
-0.187,-0.552,-0.427,-66.223,38.391,0.183
-0.04,-0.87,-0.366,-51.208,34.729,15.503
-0.158,-0.679,-0.283,-36.133,26.733,12.207
-0.106,-0.739,-0.212,-20.691,13.123,19.775
-0.072,-0.874,-0.352,-7.629,-5.92,28.076
-0.093,-0.91,-0.56,4.822,-16.479,29.114
-0.06,-0.962,-0.684,10.925,-16.785,28.198
-0.044,-0.971,-0.685,7.629,-11.475,24.292
-0.076,-0.925,-0.729,-0.671,-7.568,18.677
-0.085,-0.971,-0.771,-11.597,-3.479,14.465
-0.095,-1.008,-0.751,-23.987,0.488,10.864
-0.099,-0.958,-0.694,-39.307,0.366,7.324
-0.086,-0.91,-0.62,-54.932,-0.977,6.592
-0.078,-0.89,-0.541,-64.026,-1.709,6.348
-0.071,-0.878,-0.483,-65.369,-1.526,5.432
-0.075,-0.849,-0.45,-60.12,-1.221,5.066
-0.079,-0.825,-0.471,-52.917,-2.38,6.592
-0.073,-0.837,-0.483,-49.438,-3.906,9.277
-0.142,-0.714,-0.616,-46.021,-3.357,12.268
-0.011,-0.859,-0.436,-39.856,6.775,19.226
-0.01,-0.935,-0.398,-38.391,8.484,22.461
-0.021,-0.952,-0.418,-35.156,5.005,18.799
-0.029,-1.019,-0.409,-33.447,0.732,15.686
-0.078,-1.011,-0.41,-30.029,-2.869,9.827
-0.063,-0.976,-0.492,-24.658,-4.944,4.761
-0.062,-0.952,-0.513,-20.63,-3.845,2.991
-0.025,-0.82,-0.562,-21.362,-2.686,2.686
-0.037,-0.825,-0.511,-22.766,-1.16,8.606
-0.176,-0.907,-0.473,-29.297,-2.563,15.503
-0.17,-0.942,-0.462,-37.659,-3.784,19.592
-0.085,-0.946,-0.446,-43.579,-4.578,24.17
-0.07,-0.919,-0.467,-46.753,-7.385,28.503
-0.088,-0.918,-0.491,-46.936,-9.338,33.386
-0.082,-0.931,-0.49,-48.767,-9.766,39.612
-0.035,-0.971,-0.469,-53.162,-10.986,46.387
-0.038,-1.002,-0.476,-62.195,-15.503,51.147
-0.049,-0.996,-0.472,-73.547,-20.813,54.443
-0.061,-0.953,-0.493,-83.923,-23.315,56.519
-0.124,-0.908,-0.507,-86.914,-22.217,56.213
-0.209,-0.854,-0.505,-80.566,-17.212,55.298
-0.27,-0.845,-0.508,-64.026,-8.789,55.176
-0.293,-0.812,-0.567,-41.931,-0.977,54.321
-0.269,-0.818,-0.687,-20.874,6.104,54.26
-0.24,-0.799,-0.744,-2.991,14.648,52.612
-0.191,-0.865,-0.751,12.817,23.132,52.795
-0.154,-0.936,-0.711,21.606,30.884,50.232
-0.189,-3.281,-0.588,-13.733,-40.222,-5.31
-0.054,-3.174,-0.166,3.906,-15.076,-68.97
-0.235,-1.132,0.065,91.003,17.212,-34.119
0.171,-1.133,-0.798,107.056,5.432,-8.789
0.215,-0.99,-0.719,56.824,7.385,-13.428
0.372,-0.83,-0.568,-2.075,8.301,-14.832
0.475,-0.744,-0.443,-39.734,2.197,-9.46
0.48,-0.7,-0.349,-53.589,-4.578,-3.235
0.373,-0.767,-0.319,-46.509,-12.207,3.479
0.259,-0.815,-0.304,-32.166,-15.808,6.775
0.151,-0.89,-0.303,-15.747,-12.878,7.996
0.053,-0.961,-0.256,-0.977,-4.456,6.226
0.066,-0.972,-0.19,12.817,5.554,2.38
0.035,-0.915,-0.184,21.973,12.024,-2.38
0.053,-0.949,-0.223,30.823,14.343,-6.836
-0.008,-0.913,-0.299,32.532,15.747,-12.756
0.003,-0.901,-0.355,32.104,16.052,-17.578
-0.015,-0.916,-0.394,30.212,16.724,-22.034
-0.028,-0.944,-0.371,28.32,17.944,-24.658
-0.047,-0.996,-0.424,26.855,14.832,-26.184
-0.052,-1.022,-0.445,26.978,13.489,-29.419
-0.063,-1.004,-0.471,27.283,13.977,-30.396
-0.09,-0.996,-0.493,28.015,15.869,-28.503
-0.027,-0.976,-0.451,29.419,19.348,-25.879
0.018,-0.955,-0.418,28.931,18.677,-21.606
0.027,-0.94,-0.424,28.931,14.648,-17.151
0.002,-0.929,-0.466,29.297,10.376,-13.428
-0.007,-0.912,-0.486,26.917,9.399,-10.559
-0.032,-0.885,-0.518,23.56,7.996,-8.179
-0.059,-0.878,-0.569,23.56,5.249,-6.409
-0.002,-0.94,-0.54,21.423,3.662,-3.418
0.013,-0.975,-0.529,12.207,-0.793,2.136
0.011,-0.985,-0.532,3.54,-4.639,8.484
0.015,-0.985,-0.541,-4.15,-8.118,15.259
0.016,-0.984,-0.54,-11.78,-12.451,22.156
0.018,-0.984,-0.523,-19.592,-16.724,28.809
-0.012,-1.007,-0.491,-26.733,-19.775,34.79
-0.012,-0.998,-0.45,-30.09,-22.217,37.903
0.016,-0.97,-0.408,-30.151,-21.545,39.307
-0.023,-0.984,-0.416,-27.039,-18.677,38.452
-0.041,-0.963,-0.435,-25.208,-10.925,32.349
0.249,-0.865,-0.324,-27.222,-0.977,25.391
0.22,-0.937,-0.334,-24.902,0.977,22.217
0.18,-0.906,-0.333,-19.287,1.038,10.925
0.246,-0.808,-0.348,-20.508,2.991,2.075
0.278,-0.746,-0.409,-19.714,3.845,-0.732
0.299,-0.768,-0.397,-14.648,5.371,-1.709
0.163,-0.919,-0.42,-9.277,3.235,-4.272
0.131,-0.964,-0.399,-9.155,4.15,-10.681
0.12,-0.973,-0.378,-9.216,7.629,-14.832
0.102,-0.979,-0.382,-4.089,8.118,-17.09
0.091,-0.975,-0.39,1.099,8.423,-17.09
0.085,-0.967,-0.398,4.395,8.179,-15.93
0.08,-0.959,-0.402,6.287,6.958,-14.282
0.076,-0.954,-0.406,6.775,5.981,-12.451
0.074,-0.952,-0.411,6.897,5.127,-10.315
0.073,-0.954,-0.417,6.653,4.15,-8.301
0.076,-0.959,-0.427,5.676,3.357,-6.104
0.071,-0.962,-0.43,3.479,2.686,-3.784
0.07,-0.961,-0.424,0.549,2.197,-2.014
0.096,-0.95,-0.395,-2.93,2.136,0.244
0.09,-0.943,-0.395,-4.944,-0.061,2.441
0.076,-0.941,-0.405,-5.371,-1.526,3.113
0.078,-0.929,-0.406,-6.348,-0.305,2.686
0.078,-0.925,-0.407,-6.348,0.122,0.854
0.082,-0.932,-0.408,-5.859,1.099,-1.282
0.086,-0.941,-0.406,-5.676,1.77,-3.174
0.089,-0.951,-0.402,-5.371,2.808,-4.944
0.095,-0.953,-0.39,-5.371,3.357,-6.409
0.093,-0.949,-0.37,-4.822,2.991,-7.568
0.108,-0.941,-0.35,-3.723,1.648,-7.263
0.114,-0.946,-0.341,-2.93,0.366,-5.615
0.074,-0.944,-0.363,-1.282,-0.916,-4.517
0.047,-0.944,-0.395,1.953,-1.099,-4.7
0.042,-0.939,-0.397,4.211,0.244,-4.761
0.043,-0.941,-0.403,5.005,1.77,-4.395
0.028,-0.943,-0.413,5.676,2.136,-3.723
0.035,-0.937,-0.413,6.653,2.258,-3.601
0.055,-0.939,-0.403,6.958,2.502,-3.113
0.059,-0.944,-0.4,6.47,1.587,-2.136
0.062,-0.945,-0.397,6.531,0.244,-1.587
0.061,-0.943,-0.395,6.592,0.549,-0.732
0.065,-0.943,-0.397,7.324,0.0,-0.183
0.065,-0.944,-0.402,7.568,0.366,-0.122
0.067,-0.948,-0.407,8.057,-0.122,-0.183
0.068,-0.952,-0.412,7.812,0.488,-0.122
0.068,-0.953,-0.416,7.935,-0.488,-0.244
0.068,-0.953,-0.418,7.385,-0.244,-0.183
0.068,-0.951,-0.419,6.531,-0.061,-0.244
0.066,-0.95,-0.419,5.676,-0.061,-0.183
0.055,-0.964,-0.43,4.578,0.061,-0.244
0.068,-0.95,-0.418,2.197,1.587,0.244
0.072,-0.936,-0.409,-0.427,3.357,0.549
0.068,-0.933,-0.415,0.183,1.709,0.244
0.066,-0.935,-0.418,0.793,0.977,0.061
0.065,-0.941,-0.42,0.671,-0.244,0.061
0.065,-0.945,-0.419,-0.305,-0.244,0.366
0.064,-0.943,-0.42,-0.977,-0.122,0.854
0.063,-0.944,-0.419,-1.953,-0.854,0.854
0.064,-0.944,-0.417,-2.686,-0.977,0.977
0.065,-0.945,-0.417,-3.54,-0.549,1.343
0.066,-0.945,-0.414,-4.395,-0.549,1.343
0.067,-0.946,-0.411,-5.31,-0.549,1.221
0.067,-0.947,-0.411,-5.554,-0.61,1.221
0.068,-0.948,-0.41,-5.615,-0.549,1.16
0.067,-0.947,-0.409,-5.31,-1.282,0.977
0.068,-0.948,-0.408,-5.615,-1.404,0.854
0.068,-0.949,-0.406,-6.104,-1.16,0.854
0.068,-0.949,-0.405,-6.409,-1.526,0.854
0.068,-0.948,-0.402,-6.531,-1.648,0.671
0.068,-0.949,-0.399,-6.409,-1.282,0.671
0.068,-0.947,-0.395,-5.737,-1.526,0.549
0.068,-0.946,-0.392,-5.615,-1.343,0.427
0.071,-0.945,-0.389,-5.066,-1.77,0.366
0.084,-0.95,-0.375,-4.395,-1.892,0.0
0.054,-0.949,-0.406,-4.272,-2.319,0.122
0.069,-0.953,-0.407,-3.174,-2.136,-0.244
0.068,-0.95,-0.398,-3.662,-1.099,-0.671
0.079,-0.953,-0.384,-4.333,-0.977,-0.732
-0.503,-1.138,-0.936,3.418,-17.578,-112.122
-0.176,-1.111,-0.522,17.212,42.114,-121.338
0.063,-0.962,-0.115,25.635,71.411,-128.479
0.163,-0.801,0.158,33.569,72.266,-142.151
0.269,-0.696,0.245,26.306,60.852,-163.879
0.511,-0.508,0.167,-10.925,51.453,-189.148
0.692,-0.165,-0.007,-49.072,50.964,-213.196
1.178,0.056,-0.046,-58.289,75.5,-225.647
2.256,-0.274,0.022,-49.255,125.549,-229.614
3.753,-0.332,0.357,-43.335,175.232,-243.53
4.0,-0.336,0.645,-9.644,186.646,-233.398
4.0,-0.422,1.009,23.926,156.128,-194.702
4.0,-1.899,0.636,-62.073,105.164,-164.49
3.975,-2.815,0.984,-185.852,74.463,-207.275
2.581,-2.937,0.46,-109.436,36.682,-271.179
1.029,-2.722,0.412,100.22,0.0,-292.725
-0.398,-2.205,0.16,216.675,-55.237,-308.411
-1.675,-1.884,-0.067,256.226,-98.633,-307.495
-2.526,-1.991,-0.264,251.953,-100.83,-279.785
-2.595,-2.577,-0.558,207.581,-68.604,-244.934
-2.08,-3.123,-0.552,116.638,-7.69,-235.901
-1.555,-2.846,-0.358,18.311,33.508,-249.756
-0.874,-2.371,-0.229,-54.26,49.133,-261.23
-0.062,-1.908,-0.451,-105.591,49.072,-257.69
0.729,-1.363,-0.4,-118.408,62.988,-241.089
1.222,-0.766,-0.284,-95.52,86.304,-216.248
1.719,-0.351,-0.034,-51.514,104.919,-187.134
1.849,0.088,0.194,-18.86,91.003,-165.039
1.465,0.42,0.384,-19.531,50.903,-144.836
0.597,0.391,0.508,-37.231,-4.211,-119.995
-0.14,-0.197,0.402,-52.063,-66.833,-96.741
-0.707,-1.082,-0.18,-66.101,-101.196,-86.731
-0.959,-1.55,-0.499,-93.201,-78.491,-96.069
-0.886,-1.953,-0.739,-45.715,-41.687,-101.074
-0.735,-1.968,-0.66,61.096,-11.963,-102.478
-0.659,-1.794,-0.413,162.903,1.16,-101.929
-0.679,-1.719,-0.175,231.445,-5.554,-101.44
-0.759,-1.748,0.096,265.991,-15.442,-104.98
-0.803,-1.741,0.272,255.249,-18.738,-112.305
-0.687,-1.625,0.196,196.289,-20.447,-113.708
-0.598,-1.362,-0.035,133.85,-34.302,-102.661
-0.576,-1.109,-0.335,110.107,-51.575,-77.576
-0.522,-1.003,-0.395,114.38,-53.833,-43.64
-0.391,-1.198,-0.364,120.789,-47.668,-13.245
-0.606,-0.916,-0.419,107.605,-41.443,-0.122
-0.533,-0.979,-0.366,96.191,-25.146,21.118
-0.171,-1.12,-0.305,78.43,-5.432,21.973
-0.026,-1.125,-0.278,40.466,-3.296,-1.587
-0.081,-1.09,-0.361,9.705,-13.55,-13.733
-0.174,-1.063,-0.428,-10.376,-18.616,-16.663
-0.226,-1.037,-0.481,-31.25,-20.996,-15.32
-0.235,-1.024,-0.477,-47.913,-22.217,-12.756
-0.214,-1.017,-0.433,-45.044,-18.799,-4.883
-0.215,-0.904,-0.345,-18.005,-6.042,6.409
-0.123,-0.974,-0.111,23.01,11.536,12.817
-0.03,-0.916,-0.063,49.744,17.273,5.249
0.057,-0.853,-0.102,60.364,15.259,-0.305
0.105,-0.847,-0.202,59.631,10.315,-4.944
0.125,-0.816,-0.241,52.917,6.287,-9.338
0.152,-0.864,-0.306,43.945,-2.441,-6.348
0.152,-0.866,-0.371,27.222,-15.686,-1.831
0.112,-0.864,-0.375,11.108,-29.724,7.08
0.006,-0.969,-0.376,8.057,-39.734,23.071
-0.101,-0.997,-0.318,13.306,-38.147,36.255
-0.119,-1.063,-0.226,28.442,-27.466,47.607
-0.031,-1.104,-0.134,51.27,-13.855,46.082
0.065,-1.093,-0.155,82.153,-8.911,30.09
0.164,-1.073,-0.254,109.436,-11.78,12.756
0.22,-1.005,-0.345,119.019,-17.944,-3.601
0.159,-0.861,-0.508,109.741,-30.151,-18.127
-0.054,-0.864,-0.63,96.313,-42.542,-25.94
-0.383,-1.017,-0.883,92.529,-48.096,-29.663
-0.43,-1.171,-0.935,106.079,-26.733,-25.635
-0.118,-1.153,-0.539,120.911,0.183,-9.216
-0.014,-1.055,-0.54,130.005,-3.54,8.545
0.02,-0.939,-0.675,137.024,-5.249,11.597
0.027,-0.91,-0.844,118.164,-3.967,8.179
-0.007,-1.015,-0.912,74.768,-1.953,5.127
0.0,-1.144,-0.948,30.273,-1.831,6.042
0.043,-1.116,-0.943,-8.423,-2.075,7.263
0.04,-0.981,-0.696,-46.387,-0.061,2.441
0.054,-0.919,-0.474,-67.566,3.174,-2.869
0.022,-0.894,-0.446,-62.012,5.798,-8.545
-0.047,-0.806,-0.371,-50.171,7.385,-12.451
-0.062,-0.785,-0.318,-37.598,3.662,-7.202
-0.031,-0.809,-0.35,-22.461,-1.526,1.404
-0.019,-0.85,-0.43,-10.193,-4.639,7.141
-0.056,-0.824,-0.458,-6.104,-6.531,10.742
-0.023,-0.86,-0.488,-8.301,-10.376,18.311
0.033,-0.936,-0.527,-12.39,-13.855,24.536
0.066,-0.982,-0.545,-16.357,-13.184,23.376
0.066,-0.991,-0.54,-19.531,-9.888,17.7
0.06,-0.969,-0.535,-21.484,-6.897,11.902
0.036,-0.934,-0.526,-23.865,-4.883,7.69
0.011,-0.943,-0.526,-27.466,-4.028,5.249
0.008,-0.922,-0.504,-32.104,-2.869,4.089
0.014,-0.905,-0.467,-35.767,-1.648,3.174
-0.016,-0.884,-0.454,-37.354,-0.122,2.38
-0.036,-0.894,-0.485,-35.4,2.808,2.258
-0.061,-0.893,-0.564,-29.358,9.46,2.441
0.032,-0.891,-0.472,-22.522,21.606,1.831
-0.006,-0.792,-0.505,-20.874,26.123,1.404
-0.013,-0.792,-0.546,-9.949,30.273,2.441
0.082,-0.916,-0.531,-4.272,34.302,7.446
0.074,-0.958,-0.502,-9.521,29.358,8.85
0.063,-0.993,-0.38,-15.076,24.963,9.338
0.069,-1.02,-0.376,-23.804,15.686,11.78
0.093,-1.086,-0.362,-30.151,5.859,12.695
0.051,-1.084,-0.354,-40.1,-5.249,11.292
-0.007,-1.002,-0.354,-47.974,-13.367,12.39
-0.038,-0.929,-0.378,-44.617,-18.127,17.334
-0.003,-0.922,-0.422,-41.016,-25.513,24.536
-0.002,-0.951,-0.498,-50.842,-36.621,31.433
-0.025,-0.971,-0.5,-66.711,-45.898,36.133
-0.09,-0.992,-0.455,-80.75,-51.819,41.138
-0.195,-0.997,-0.455,-83.069,-55.115,48.157
-0.274,-1.042,-0.536,-67.871,-54.199,53.284
-0.248,-1.026,-0.56,-45.166,-42.542,46.143
-0.247,-0.974,-0.552,-24.231,-24.231,30.09
0.273,-1.939,-0.332,-37.415,-25.085,49.255
0.009,-1.671,-0.307,-28.381,-33.02,43.884
-0.337,-1.347,-0.382,-8.911,-32.043,44.25
-0.374,-1.255,-0.511,-5.554,-16.479,45.227
-0.186,-1.281,-0.447,-18.616,9.766,39.246
0.006,-1.289,-0.253,-34.302,29.175,26.672
0.167,-1.271,-0.121,-39.795,32.41,12.207
0.234,-1.174,-0.104,-32.654,23.071,-1.648
0.211,-1.009,-0.163,-23.621,8.484,-13.0
0.13,-0.829,-0.316,-19.592,-5.005,-19.165
0.038,-0.663,-0.381,-16.907,-10.986,-19.531
-0.025,-0.607,-0.426,-6.836,-11.047,-13.794
-0.124,-0.495,-0.216,10.803,-9.033,-7.507
-0.117,-0.676,-0.386,33.203,-10.925,2.014
-0.134,-0.716,-0.333,46.875,-2.197,0.183
-0.073,-0.793,-0.328,51.941,5.676,-3.174
0.014,-0.755,-0.299,50.964,12.878,-8.728
0.128,-0.749,-0.354,44.312,15.686,-13.245
0.215,-0.763,-0.401,29.175,16.052,-18.433
0.249,-0.711,-0.364,10.742,12.939,-20.935
0.304,-0.725,-0.325,1.404,7.385,-15.991
0.333,-0.734,-0.237,1.282,2.991,-5.859
0.382,-0.797,-0.151,9.094,-0.793,7.935
0.451,-0.932,-0.073,20.63,-2.136,21.729
0.513,-0.914,0.058,29.663,-2.808,29.785
0.608,-0.957,0.022,39.978,-7.568,35.889
0.628,-0.815,-0.077,43.945,-13.916,34.607
0.64,-0.696,-0.218,45.715,-24.109,35.95
0.684,-0.733,-0.37,45.044,-35.522,36.255
0.621,-0.829,-0.557,29.785,-50.293,28.992
0.493,-0.91,-0.684,4.883,-56.091,13.245
0.382,-1.162,-0.751,-15.137,-46.448,-4.333
0.27,-1.449,-0.621,-28.564,-28.748,-24.841
0.212,-1.503,-0.427,-36.255,-14.465,-46.143
0.211,-1.371,-0.312,-28.198,-5.066,-55.298
0.292,-1.202,-0.229,-5.798,1.099,-48.706
0.367,-1.056,-0.254,21.118,-1.038,-34.241
0.372,-1.04,-0.265,40.1,-8.057,-20.325
0.304,-0.97,-0.308,37.598,-16.418,-13.733
0.249,-0.832,-0.275,23.132,-21.362,-6.958
0.231,-0.784,-0.331,10.742,-26.306,4.028
0.188,-0.758,-0.399,3.052,-28.259,12.939
0.136,-0.775,-0.441,-2.808,-25.269,19.47
0.066,-0.847,-0.472,-2.563,-20.447,21.973
-0.002,-0.912,-0.473,-0.854,-13.367,18.311
-0.04,-0.988,-0.425,1.404,-5.066,10.864
-0.025,-0.981,-0.386,3.174,1.343,0.916
-0.004,-1.015,-0.333,4.944,4.822,-8.362
0.046,-0.97,-0.312,5.676,4.822,-17.395
0.029,-0.998,-0.335,7.751,2.502,-21.545
0.007,-0.971,-0.38,8.118,2.38,-23.315
0.003,-0.966,-0.414,7.629,6.531,-22.034
0.041,-0.911,-0.394,3.967,13.428,-18.982
0.047,-0.905,-0.382,0.488,18.311,-14.465
0.026,-0.906,-0.394,-2.93,21.24,-11.414
0.025,-0.912,-0.401,-5.188,24.109,-9.399
0.005,-0.934,-0.398,-7.69,27.039,-7.568
0.032,-0.948,-0.369,-9.705,28.687,-6.531
0.051,-0.966,-0.391,-9.155,28.015,-6.348
0.075,-0.961,-0.376,-6.226,28.32,-7.385
0.067,-0.942,-0.355,-1.282,26.306,-8.301
0.021,-0.942,-0.411,7.141,22.949,-8.85
0.04,-0.943,-0.407,16.296,22.766,-8.606
0.025,-0.941,-0.409,22.339,19.531,-8.85
-0.005,-0.93,-0.435,28.625,13.489,-8.911
-0.037,-0.931,-0.494,33.142,8.545,-8.24
0.018,-0.92,-0.459,33.447,7.385,-6.531
0.011,-0.916,-0.412,28.687,5.127,-2.625
0.018,-0.945,-0.418,26.489,1.526,3.662
0.048,-0.995,-0.467,26.733,-0.671,10.193
0.06,-0.995,-0.497,24.292,-1.404,12.573
0.031,-0.996,-0.478,19.348,-1.282,13.0
0.013,-1.0,-0.498,13.55,-1.648,12.512
0.001,-1.001,-0.482,4.272,-0.061,11.047
-0.016,-0.987,-0.463,-6.897,0.854,8.606
0.082,-0.909,-0.451,-17.822,1.16,6.836
0.197,-0.885,-0.459,-20.203,0.61,9.216
0.19,-0.904,-0.457,-14.099,-1.099,11.963
0.115,-0.938,-0.466,-9.766,-3.906,9.766
0.089,-0.924,-0.447,-11.78,-1.77,5.127
0.116,-0.91,-0.396,-15.381,2.014,1.099
0.167,-0.863,-0.385,-16.541,3.296,-2.014
0.206,-0.86,-0.416,-13.0,2.991,-3.174
0.166,-0.924,-0.425,-5.127,2.502,-3.174
0.102,-0.947,-0.42,-0.732,2.014,-4.944
0.094,-0.948,-0.414,-0.793,3.479,-6.836
0.085,-0.95,-0.419,0.061,3.601,-7.263
0.082,-0.949,-0.424,0.916,3.54,-7.324
0.079,-0.952,-0.428,0.671,3.479,-6.592
0.079,-0.955,-0.433,0.305,2.991,-6.042
0.076,-0.953,-0.438,-0.549,2.258,-5.615
0.076,-0.953,-0.44,-2.625,1.77,-4.7
0.074,-0.955,-0.444,-5.127,1.526,-3.906
0.074,-0.954,-0.442,-7.935,0.977,-3.479
0.076,-0.95,-0.434,-10.803,0.244,-3.113
0.074,-0.953,-0.425,-13.245,-0.61,-2.686
0.083,-0.936,-0.406,-15.381,-1.709,-2.258
0.06,-0.947,-0.423,-16.235,-3.357,-1.648
0.086,-0.952,-0.392,-16.235,-2.319,-0.61
0.073,-0.939,-0.389,-16.602,-2.93,-0.366
0.07,-0.938,-0.388,-15.32,-3.479,-0.305
0.072,-0.932,-0.375,-13.672,-2.625,-0.183
0.07,-0.925,-0.366,-12.207,-2.441,-0.183
0.067,-0.925,-0.364,-10.254,-2.319,-0.061
0.065,-0.937,-0.383,-7.751,-2.136,0.061
0.073,-0.944,-0.384,-6.531,-1.282,-0.183
0.071,-0.95,-0.38,-5.615,-0.671,-0.305
0.067,-0.949,-0.378,-4.822,-0.854,-0.183
0.068,-0.95,-0.38,-3.54,-1.221,0.671
0.068,-0.947,-0.378,-2.808,-1.343,1.465
0.072,-0.943,-0.375,-2.075,-1.465,2.197
0.074,-0.942,-0.372,-1.343,-1.526,2.319
0.076,-0.941,-0.368,-0.183,-1.282,2.075
0.078,-0.941,-0.37,1.465,-1.221,1.77
0.079,-0.944,-0.375,3.052,-0.732,1.526
0.08,-0.947,-0.379,4.028,-0.366,0.977
0.081,-0.95,-0.384,4.822,-0.122,0.549
0.082,-0.952,-0.387,5.554,0.061,-0.061
0.081,-0.953,-0.389,5.92,0.122,-0.61
3.427,-0.227,0.221,-54.993,171.387,-218.994
4.0,-0.39,1.168,-52.063,207.458,-233.276
4.0,-0.686,4.0,-68.237,213.135,-216.736
4.0,-3.868,2.37,-107.422,42.603,-186.401
4.0,-3.907,0.643,-238.708,-95.032,-274.719
2.263,-2.957,-0.918,-149.353,-136.841,-331.909
0.588,-1.107,-0.57,37.476,-115.601,-327.454
-0.835,-0.335,0.399,188.843,-111.633,-308.105
-1.868,-0.717,0.212,276.794,-154.846,-278.503
-2.619,-1.487,-0.565,216.248,-148.071,-246.46
-2.597,-2.488,-0.745,104.065,-79.651,-234.802
-2.075,-2.983,-0.507,15.991,0.366,-242.187
-1.348,-2.973,0.197,-50.903,66.589,-246.155
-0.516,-2.776,0.734,-80.566,73.792,-247.192
0.213,-2.228,0.587,-72.388,40.955,-247.253
0.916,-1.313,0.318,-74.768,24.719,-243.896
1.396,-0.424,0.221,-83.374,34.546,-226.868
1.646,0.118,0.156,-63.843,35.095,-191.04
1.235,0.442,0.291,-36.56,8.545,-154.175
0.537,0.452,0.569,-25.452,-37.842,-125.732
-0.192,0.197,0.408,-22.217,-88.196,-103.577
-0.656,-0.277,0.041,-32.41,-105.347,-82.275
-0.938,-0.779,-0.075,-51.27,-87.036,-73.792
-1.0,-1.181,-0.125,-41.992,-67.017,-81.909
-0.774,-1.284,-0.235,10.803,-51.025,-96.619
-0.481,-1.196,-0.239,77.942,-34.363,-108.398
-0.374,-1.116,-0.068,128.052,-20.142,-113.77
-0.496,-1.184,0.147,160.828,-13.184,-111.328
-0.693,-1.271,0.254,177.856,-17.029,-102.6
-0.856,-1.31,0.213,179.626,-31.86,-88.318
-1.016,-1.324,0.119,173.462,-49.744,-67.627
-1.117,-1.383,-0.066,165.955,-63.416,-42.358
-1.095,-1.499,-0.198,154.236,-59.753,-20.325
-0.977,-1.558,-0.269,138.245,-40.833,-10.193
-0.786,-1.533,-0.352,129.822,-14.648,-8.789
-0.399,-1.454,-0.275,132.202,18.677,-7.629
-0.077,-1.65,0.074,138.733,41.26,-5.981
-0.046,-1.478,0.122,130.798,24.597,-12.451
0.178,-1.649,0.205,107.361,0.427,-9.094
0.074,-1.307,0.095,68.481,-28.992,-16.052
-0.206,-0.958,-0.148,48.706,-47.546,-4.639
-0.332,-0.952,-0.01,59.875,-42.419,15.564
-0.503,-0.811,0.023,71.533,-41.504,20.325
-0.536,-0.797,-0.068,76.477,-33.569,22.949
-0.402,-0.802,-0.124,65.002,-18.799,18.738
-0.25,-0.738,-0.226,41.321,-11.78,10.193
-0.174,-0.688,-0.383,20.264,-6.653,7.202
-0.139,-0.698,-0.519,-0.183,2.808,12.695
-0.025,-0.885,-0.469,-17.273,14.465,21.545
0.044,-1.031,-0.415,-33.752,17.029,23.926
0.081,-1.173,-0.297,-41.321,17.517,26.245
0.109,-1.23,-0.099,-29.175,16.418,27.283
0.103,-1.145,-0.034,6.897,13.0,29.114
0.074,-1.028,-0.048,51.147,14.343,33.264
0.052,-0.915,-0.095,74.89,19.165,35.095
0.068,-0.898,-0.139,72.021,23.01,34.973
0.103,-0.924,-0.132,55.359,21.301,33.63
0.094,-0.94,-0.111,33.936,9.949,31.067
0.093,-0.971,-0.115,18.188,-7.385,31.677
0.084,-0.974,-0.289,8.789,-24.048,33.875
0.083,-0.948,-0.452,1.587,-29.114,35.095
0.071,-0.946,-0.397,2.563,-24.78,35.217
0.056,-0.895,-0.252,17.029,-22.583,35.156
0.127,-0.858,-0.228,42.542,-25.024,32.593
0.227,-0.794,-0.236,70.007,-27.039,25.208
0.225,-0.864,-0.26,87.402,-30.701,19.531
0.101,-0.986,-0.243,88.318,-32.227,21.912
-0.102,-1.151,-0.261,85.815,-32.166,22.156
-0.207,-1.25,-0.276,85.632,-19.47,21.24
-0.151,-1.424,-0.293,94.055,0.183,22.034
0.176,-1.897,-0.379,103.882,16.846,18.311
0.339,-1.849,-0.478,125.305,24.78,2.686
0.098,-1.003,-0.404,149.902,25.33,-20.691
-0.071,-0.771,-0.432,153.381,20.325,-25.879
0.006,-1.062,-0.76,141.174,9.827,-8.972
0.067,-1.318,-1.032,104.431,4.089,0.305
0.078,-1.33,-1.023,45.349,2.686,0.0
0.044,-1.133,-0.793,-15.381,0.488,0.854
-0.0,-0.929,-0.437,-55.786,-0.366,0.916
0.052,-0.857,-0.258,-63.171,-3.113,5.188
0.083,-0.839,-0.178,-49.377,-4.7,9.155
0.104,-0.824,-0.189,-22.156,-3.418,6.531
0.058,-0.8,-0.24,1.77,-0.732,1.709
0.038,-0.826,-0.283,18.127,0.305,0.061
0.052,-0.909,-0.346,28.992,-0.183,2.075
0.05,-0.967,-0.444,35.217,-1.282,3.723
0.049,-0.979,-0.519,33.447,-2.38,5.554
0.06,-1.019,-0.558,22.339,-3.052,7.019
0.082,-1.049,-0.537,8.179,-2.93,6.653
0.079,-0.989,-0.469,-2.258,-2.808,5.737
0.079,-0.922,-0.395,-6.287,-2.747,4.333
0.099,-0.914,-0.384,-5.005,-1.404,1.953
0.09,-0.92,-0.426,-0.305,0.793,-1.77
0.091,-0.955,-0.477,0.427,2.686,-5.493
0.096,-0.987,-0.516,-4.7,4.089,-9.277
0.045,-0.994,-0.542,-13.794,3.845,-11.658
0.019,-0.993,-0.542,-25.818,1.953,-9.583
0.016,-1.0,-0.517,-40.405,-1.343,-3.723
0.017,-0.978,-0.452,-54.016,-4.944,2.197
0.001,-0.943,-0.377,-61.401,-7.935,7.935
-0.005,-0.929,-0.375,-61.401,-11.108,14.465
-0.006,-0.951,-0.431,-60.974,-15.869,22.4
0.063,-0.882,-0.435,-63.599,-23.315,29.114
0.087,-0.823,-0.462,-57.678,-40.405,30.762
-0.133,-0.853,-0.679,-42.053,-57.007,28.748
-0.376,-0.903,-0.823,-20.203,-44.434,25.269
-0.273,-0.97,-0.589,-6.042,-9.705,23.987
-0.137,-0.903,-0.482,-0.488,13.794,20.02
-0.08,-0.965,-0.292,6.958,29.48,15.076
0.048,-0.983,-0.188,9.094,35.461,8.85
0.073,-0.932,-0.126,7.019,31.616,3.662
0.079,-0.904,-0.136,7.996,22.4,2.38
0.091,-0.909,-0.203,8.179,14.343,2.014
0.081,-0.901,-0.263,3.784,7.69,2.747
0.098,-0.929,-0.307,-6.531,0.916,5.127
0.039,-1.06,-0.337,-22.034,-5.554,8.179
-0.01,-1.073,-0.385,-36.987,-12.756,8.911
0.008,-1.109,-0.39,-41.687,-15.442,12.634
-0.083,-1.189,-0.323,-33.875,-12.573,17.822
-0.146,-3.74,-0.901,-2.075,-35.767,-0.488
0.198,-2.296,-0.106,22.522,25.757,-76.66
-0.113,-1.294,-0.408,112.793,30.518,-69.031
0.436,-0.91,-0.629,160.828,8.179,-28.015
0.394,-0.979,-0.659,107.788,-1.892,-15.32
0.304,-0.933,-0.5,43.335,-6.104,-26.672
0.211,-0.881,-0.392,2.563,-12.207,-29.358
0.187,-0.891,-0.339,-10.254,-16.663,-21.606
0.189,-0.862,-0.272,-11.23,-13.794,-13.611
0.176,-0.85,-0.304,-6.531,-12.878,-6.287
0.125,-0.809,-0.305,1.404,-8.362,-1.831
0.11,-0.797,-0.272,11.841,-5.432,1.953
0.023,-0.826,-0.351,22.522,-4.883,2.991
-0.038,-0.891,-0.415,30.762,-0.488,-0.244
-0.111,-0.925,-0.524,34.668,7.568,-4.211
-0.158,-0.987,-0.586,32.349,17.517,-9.338
-0.119,-1.026,-0.586,24.536,23.743,-15.198
-0.108,-1.052,-0.637,18.066,25.085,-18.372
-0.056,-1.011,-0.529,12.878,25.635,-19.287
0.038,-0.977,-0.432,8.179,19.958,-17.944
0.024,-0.932,-0.398,7.385,10.62,-17.09
0.007,-0.91,-0.414,8.545,4.333,-16.541
0.024,-0.868,-0.383,9.644,1.831,-15.808
-0.052,-0.837,-0.437,12.268,-2.38,-14.343
-0.094,-0.863,-0.486,19.47,-2.136,-11.719
-0.078,-0.861,-0.467,23.132,2.258,-8.423
-0.097,-0.85,-0.467,27.649,3.967,-5.859
-0.098,-0.863,-0.515,36.621,4.883,-3.723
-0.023,-0.866,-0.498,43.762,6.348,-2.563
-0.031,-0.886,-0.487,45.959,2.136,0.122
0.002,-0.946,-0.552,44.678,-3.54,7.446
0.015,-0.971,-0.603,39.734,-6.653,12.634
0.01,-0.981,-0.629,30.09,-8.362,16.235
0.0,-0.966,-0.607,17.029,-9.216,19.47
0.01,-0.949,-0.577,4.517,-9.888,23.56
0.02,-0.949,-0.568,-4.883,-10.498,27.161
-0.026,-0.969,-0.581,-12.451,-9.827,28.381
-0.008,-0.936,-0.544,-22.949,-5.005,26.733
0.058,-0.913,-0.487,-32.898,0.061,24.658
0.068,-0.908,-0.486,-36.804,1.16,21.729
0.088,-0.88,-0.492,-37.842,1.587,16.907
0.146,-0.86,-0.459,-38.391,2.747,13.0
0.27,-0.831,-0.442,-36.194,1.404,10.01
0.236,-0.886,-0.457,-27.222,-2.686,9.094
0.114,-0.921,-0.458,-18.311,-4.7,5.249
0.102,-0.899,-0.432,-17.395,-1.343,-0.366
0.106,-0.899,-0.419,-15.686,1.587,-4.7
0.105,-0.923,-0.431,-13.428,4.15,-8.911
0.097,-0.908,-0.448,-12.695,6.531,-14.221
0.091,-0.946,-0.436,-11.292,8.667,-18.066
0.073,-0.944,-0.45,-10.071,8.85,-20.935
0.064,-0.945,-0.453,-9.583,8.606,-21.729
0.055,-0.943,-0.451,-10.498,6.836,-21.179
0.032,-0.933,-0.447,-11.475,3.967,-18.982
0.023,-0.935,-0.447,-11.597,1.526,-14.954
0.031,-0.934,-0.432,-11.353,0.244,-10.742
0.031,-0.928,-0.421,-10.559,-1.709,-7.202
0.022,-0.92,-0.419,-9.521,-3.418,-4.15
0.008,-0.922,-0.442,-8.179,-4.517,-2.319
0.003,-0.929,-0.464,-7.935,-3.662,-0.549
0.032,-0.933,-0.447,-9.705,-1.77,0.549
0.038,-0.938,-0.436,-12.207,-1.343,1.526
0.042,-0.944,-0.432,-13.0,-2.075,2.319
0.046,-0.946,-0.427,-13.367,-2.441,3.052
0.053,-0.945,-0.415,-13.245,-2.502,3.174
0.055,-0.935,-0.395,-12.756,-3.601,2.93
0.034,-0.936,-0.425,-10.742,-4.7,2.136
0.054,-0.929,-0.405,-8.606,-2.319,1.282
0.052,-0.923,-0.388,-7.324,-0.671,0.122
0.052,-0.92,-0.383,-4.944,0.183,-1.099
0.054,-0.917,-0.385,-2.258,0.793,-1.892
0.088,-0.911,-0.356,-0.366,0.549,-2.258
0.041,-0.929,-0.4,1.892,-2.258,-1.892
0.008,-0.943,-0.433,4.395,-2.38,-1.77
0.009,-0.945,-0.441,4.883,-0.671,-1.648
0.035,-0.942,-0.414,3.601,0.549,-0.793
0.041,-0.945,-0.408,3.601,-0.122,0.793
0.044,-0.942,-0.404,5.066,-0.61,1.465
0.047,-0.934,-0.399,6.714,-0.732,1.648
0.049,-0.927,-0.4,8.789,-0.61,1.526
0.052,-0.926,-0.406,10.559,-0.183,1.038
0.051,-0.925,-0.41,11.475,0.671,0.244
0.052,-0.925,-0.415,12.39,1.465,-0.427
0.047,-0.931,-0.425,12.573,1.77,-1.221
0.049,-0.932,-0.427,12.817,1.892,-1.892
0.037,-0.94,-0.445,12.634,1.404,-1.709
0.042,-0.942,-0.447,11.658,1.709,-1.343
0.031,-0.939,-0.454,10.071,1.282,-0.61
0.036,-0.94,-0.452,8.972,0.61,-0.305
0.04,-0.94,-0.45,7.812,-0.122,0.427
0.044,-0.937,-0.445,7.019,-0.61,0.854
0.045,-0.93,-0.438,6.531,-0.732,1.038
0.047,-0.923,-0.434,6.348,-0.488,0.732
0.048,-0.92,-0.431,6.775,-0.061,0.244
0.046,-0.92,-0.435,7.202,0.61,-0.305
0.049,-0.918,-0.435,7.751,1.038,-0.916
0.047,-0.925,-0.442,8.179,1.282,-1.648
0.044,-0.93,-0.452,8.85,0.977,-2.136
0.044,-0.937,-0.459,8.789,0.916,-2.258
0.041,-0.94,-0.466,7.935,1.038,-2.197
0.04,-0.941,-0.469,6.897,0.793,-2.014
0.038,-0.937,-0.469,5.31,0.671,-1.587
0.038,-0.934,-0.466,3.479,0.244,-1.282
0.038,-0.931,-0.463,1.892,-0.122,-0.977
0.038,-0.928,-0.459,0.366,-0.366,-0.549
0.038,-0.926,-0.456,-0.671,-0.366,-0.244
0.038,-0.924,-0.455,-1.282,-0.61,0.061
0.038,-0.923,-0.452,-1.709,-0.61,0.061
0.038,-0.922,-0.45,-2.319,-0.793,0.183
0.039,-0.923,-0.449,-2.441,-1.038,0.488
0.038,-0.924,-0.449,-2.991,-1.038,0.671
0.04,-0.927,-0.451,-2.991,-1.221,0.793
0.039,-0.928,-0.453,-3.723,-1.221,0.793
0.04,-0.933,-0.455,-4.272,-1.404,0.977
0.04,-0.933,-0.454,-5.005,-1.587,1.282
0.04,-0.934,-0.451,-5.676,-1.587,1.709
0.042,-0.934,-0.446,-6.287,-1.709,1.831
0.044,-0.931,-0.441,-6.348,-1.587,1.709
0.044,-0.926,-0.433,-5.737,-1.404,1.587
-0.343,-0.379,-1.006,-49.683,0.549,-31.799
0.149,-0.36,-0.291,-45.41,76.782,-46.631
0.767,-0.339,0.249,-18.677,102.783,-50.781
0.894,-0.479,0.657,16.357,83.191,-57.556
0.612,-0.747,0.865,67.017,37.903,-66.895
0.298,-0.939,0.609,84.656,-8.301,-83.679
-0.135,-0.917,-0.155,44.434,-53.467,-113.037
-0.703,-0.703,-0.974,-13.367,-71.838,-150.208
-1.024,-0.6,-1.086,-45.593,-31.067,-167.175
-0.719,-0.828,-0.817,-47.913,43.396,-158.63
0.033,-1.116,-0.337,-52.185,114.929,-149.902
0.754,-1.239,0.26,-46.326,148.743,-150.513
1.279,-1.11,0.706,-26.672,136.597,-168.762
1.604,-0.824,0.758,-19.409,95.703,-196.228
1.899,-0.596,0.483,-37.231,54.749,-219.177
2.145,-0.584,0.137,-72.021,39.368,-239.624
2.967,-1.032,-0.113,-108.459,59.875,-257.69
4.0,-0.956,-0.049,-148.01,98.633,-287.537
4.0,-1.644,0.48,-131.653,136.719,-275.574
4.0,-1.976,1.622,-79.895,139.587,-264.282
3.827,-2.146,1.258,-43.396,45.227,-278.687
2.52,-1.92,0.54,-10.437,-36.255,-286.987
1.172,-1.682,0.313,42.542,-64.88,-281.555
-0.207,-1.502,0.164,111.938,-81.055,-276.245
-1.203,-1.791,-0.012,168.152,-100.708,-273.499
-1.939,-1.867,-0.16,185.913,-107.91,-272.949
-2.26,-2.067,-0.459,183.228,-90.515,-260.315
-2.152,-2.157,-0.694,145.569,-50.476,-259.338
-1.641,-1.969,-0.694,79.407,-0.427,-271.545
-1.012,-1.719,-0.546,-1.221,48.157,-276.123
-0.168,-1.673,-0.184,-79.346,85.266,-258.545
0.765,-1.391,0.294,-114.624,104.919,-230.591
1.503,-1.132,0.69,-99.609,99.976,-198.608
1.766,-0.897,0.565,-70.679,72.571,-178.467
1.833,-0.485,0.437,-68.542,44.189,-161.56
1.45,-0.165,0.278,-59.814,2.991,-135.193
0.682,-0.105,0.17,-30.151,-56.58,-117.004
-0.099,-0.081,0.04,-10.559,-108.765,-118.225
-0.706,-0.229,-0.25,-4.333,-130.798,-119.507
-1.045,-0.478,-0.509,-6.958,-119.507,-109.802
-1.102,-0.85,-0.641,16.479,-86.914,-94.238
-1.01,-1.118,-0.572,86.426,-45.41,-78.552
-0.851,-1.264,-0.304,185.303,-9.338,-65.125
-0.764,-1.502,0.012,263.428,8.728,-56.274
-0.802,-1.867,0.176,287.415,4.211,-51.392
-0.845,-2.082,0.243,255.737,-17.883,-52.49
-0.859,-2.113,0.054,206.116,-43.396,-50.842
-0.776,-2.182,-0.119,170.593,-54.504,-37.964
-0.715,-2.121,-0.222,143.738,-53.711,-24.048
-0.646,-2.005,-0.246,124.023,-48.584,-14.526
-0.555,-1.821,-0.25,112.854,-40.588,-11.902
-0.427,-1.679,-0.292,104.675,-31.677,-15.442
-0.349,-1.327,-0.522,85.205,-27.832,-20.996
-0.189,-1.275,-0.37,61.523,-15.808,-21.179
-0.109,-1.179,-0.183,39.246,-13.428,-23.926
-0.172,-0.989,-0.231,11.169,-25.574,-25.024
-0.215,-0.813,-0.242,-10.864,-31.738,-22.095
-0.29,-0.641,-0.304,-20.569,-35.156,-19.592
-0.44,-0.465,-0.515,-19.348,-31.494,-12.634
-0.435,-0.537,-0.501,-19.104,-12.939,3.052
-0.318,-0.692,-0.426,-26.55,-0.366,9.888
-0.064,-0.93,-0.305,-36.987,0.61,4.761
0.008,-1.004,-0.333,-44.373,-11.108,-3.845
-0.052,-1.098,-0.39,-32.898,-18.494,-0.549
-0.109,-1.143,-0.367,-13.672,-11.719,0.061
-0.097,-1.064,-0.275,4.883,0.732,-4.578
-0.031,-0.929,-0.229,17.395,10.986,-8.179
0.002,-0.792,-0.225,22.827,14.343,-7.324
0.019,-0.72,-0.26,26.245,11.292,-1.587
0.011,-0.699,-0.351,30.518,5.676,5.493
-0.025,-0.609,-0.477,31.372,-0.244,10.193
0.012,-0.804,-0.552,30.029,-5.615,17.639
0.014,-0.891,-0.569,24.414,-12.146,17.578
0.005,-1.033,-0.622,26.978,-16.113,20.569
-0.021,-1.103,-0.555,47.241,-8.057,28.259
0.022,-1.089,-0.407,69.519,-0.549,32.898
0.063,-0.986,-0.224,82.153,0.0,27.954
0.063,-0.836,-0.078,87.036,-2.502,18.188
0.052,-0.834,-0.01,91.797,-3.662,10.254
-0.007,-0.763,-0.037,88.684,-6.348,2.441
-0.063,-0.68,-0.102,83.801,-7.141,-0.427
-0.071,-0.654,-0.26,74.829,-4.883,2.625
-0.056,-0.65,-0.368,49.377,0.122,7.446
-0.019,-0.666,-0.417,14.587,0.977,19.47
0.008,-0.78,-0.423,-10.376,-2.625,40.039
0.021,-1.063,-0.378,-21.973,-6.409,63.477
0.003,-1.608,-0.173,-29.419,-7.568,79.102
0.056,-2.024,-0.096,-36.133,-16.663,70.374
0.121,-2.179,-0.637,-15.869,-30.823,42.603
0.171,-1.775,-0.66,48.523,-16.174,19.47
0.126,-1.067,-0.543,82.703,-5.92,9.033
0.08,-0.806,-0.502,68.054,-8.301,4.395
0.026,-0.728,-0.477,41.565,-9.705,4.089
-0.019,-0.747,-0.378,15.869,-8.789,6.775
0.003,-0.81,-0.245,5.249,-5.737,11.353
0.019,-0.86,-0.238,14.038,-5.737,14.526
0.054,-0.91,-0.358,29.724,-8.118,14.954
0.121,-1.004,-0.454,34.058,-6.348,16.113
0.144,-1.094,-0.527,29.968,-3.113,12.695
0.092,-1.141,-0.607,23.01,-1.77,7.08
0.089,-1.161,-0.645,11.23,-3.113,7.385
0.086,-1.105,-0.637,-4.15,-6.592,10.315
0.081,-1.016,-0.534,-23.132,-8.423,12.024
0.089,-0.95,-0.397,-36.682,-9.094,12.512
0.121,-0.926,-0.31,-37.476,-8.545,11.475
0.126,-0.916,-0.255,-27.771,-6.104,6.409
0.108,-0.837,-0.243,-14.343,-2.991,-0.793
0.1,-0.831,-0.263,2.563,0.488,-5.31
0.112,-0.843,-0.31,14.16,2.441,-7.935
0.089,-0.863,-0.383,15.93,0.977,-10.01
0.117,-0.899,-0.445,13.184,0.671,-10.62
0.157,-0.951,-0.439,8.667,1.77,-7.568
0.155,-0.991,-0.431,5.981,0.061,-5.188
0.122,-0.978,-0.389,7.446,-1.465,-5.432
0.065,-0.944,-0.365,10.742,-3.052,-6.226
-0.01,-0.932,-0.41,13.672,-4.761,-6.897
-0.037,-0.96,-0.488,12.756,-5.066,-6.775
-0.005,-0.999,-0.551,4.883,-4.822,-5.249
0.05,-1.01,-0.561,-9.521,-6.226,-2.258
0.423,-1.542,-0.345,-23.743,4.883,-3.296
0.284,-1.439,-0.405,1.526,5.493,-9.399
0.162,-1.239,-0.513,31.921,10.742,-14.343
0.108,-1.041,-0.602,45.715,22.461,-17.456
0.17,-0.898,-0.551,39.246,37.17,-18.799
0.307,-0.8,-0.407,18.066,46.204,-16.357
0.411,-0.841,-0.45,-1.404,44.617,-14.038
0.441,-0.783,-0.322,-17.273,43.945,-16.418
0.4,-0.775,-0.186,-19.897,36.499,-15.991
0.306,-0.83,-0.149,-8.118,22.461,-10.437
0.187,-0.902,-0.245,8.667,5.554,-4.639
0.028,-1.035,-0.434,24.109,-5.249,-0.977
-0.049,-1.063,-0.52,31.921,-3.113,0.305
-0.117,-1.066,-0.574,28.442,4.517,0.427
-0.022,-0.996,-0.549,19.47,13.0,-2.075
0.009,-0.952,-0.57,8.24,18.494,-2.502
0.137,-0.935,-0.521,-2.136,19.775,-2.93
0.201,-0.924,-0.488,-11.047,15.503,-2.991
0.222,-0.904,-0.422,-13.062,8.179,-3.174
0.223,-0.912,-0.413,-8.301,-0.305,-2.014
0.216,-0.977,-0.442,1.953,-4.211,-0.854
0.184,-0.96,-0.417,6.836,0.366,-1.709
0.144,-0.914,-0.279,8.667,8.301,-1.099
0.123,-0.859,-0.276,7.019,11.23,0.549
0.061,-0.857,-0.261,3.845,12.512,1.587
0.023,-0.847,-0.371,-2.563,11.597,0.671
-0.011,-0.876,-0.468,-5.31,11.78,-1.16
-0.063,-0.9,-0.553,-5.493,15.076,-4.272
-0.071,-0.915,-0.534,-3.845,20.203,-9.399
-0.1,-0.881,-0.536,-3.845,23.315,-13.855
-0.061,-0.875,-0.492,-2.808,26.062,-14.954
-0.018,-0.859,-0.465,-5.615,26.489,-13.977
-0.011,-0.896,-0.513,-5.371,26.306,-11.23
0.007,-0.935,-0.436,0.122,28.076,-8.484
0.068,-0.918,-0.316,6.836,22.949,-6.409
0.074,-0.946,-0.446,17.151,9.949,-2.93
0.059,-0.979,-0.586,28.809,2.808,-0.977
0.063,-0.948,-0.6,30.09,3.296,-1.648
0.069,-0.928,-0.593,26.672,4.944,-1.343
0.08,-0.941,-0.538,22.827,5.493,-0.427
0.076,-0.957,-0.492,16.296,3.174,-1.038
0.081,-0.941,-0.451,10.193,0.732,-1.526
0.085,-0.915,-0.462,5.981,-2.441,-2.197
0.081,-0.886,-0.497,3.723,-4.272,-2.686
0.085,-0.9,-0.557,4.517,-2.38,-2.686
0.102,-0.865,-0.509,4.089,1.526,-2.563
0.064,-0.851,-0.559,3.845,1.16,-2.563
0.065,-0.844,-0.56,5.92,2.808,-1.77
0.074,-0.852,-0.527,5.92,3.479,-1.953
0.052,-0.9,-0.52,4.578,1.648,-1.953
0.053,-0.909,-0.505,0.488,0.488,-1.099
0.053,-0.918,-0.492,-2.38,0.366,0.244
0.055,-0.919,-0.483,-2.747,-0.122,1.953
0.054,-0.917,-0.477,-1.16,-1.099,3.723
0.058,-0.912,-0.477,0.916,-1.953,5.188
0.066,-0.906,-0.477,1.953,-2.075,5.859
0.074,-0.903,-0.486,2.808,-2.014,5.798
0.067,-0.916,-0.494,2.686,-1.404,5.005
0.056,-0.922,-0.502,0.427,0.061,3.174
0.082,-0.895,-0.49,-2.319,1.038,0.61
0.109,-0.874,-0.496,-3.296,1.77,0.183
0.077,-0.923,-0.522,-2.136,0.061,1.038
0.071,-0.936,-0.523,-3.967,-1.16,0.854
0.066,-0.943,-0.528,-7.019,-1.404,1.16
0.066,-0.943,-0.532,-10.864,-1.587,2.747
0.063,-0.934,-0.519,-14.771,-2.563,4.395
0.068,-0.928,-0.497,-18.005,-4.456,5.859
0.075,-0.92,-0.474,-20.264,-4.639,6.897
0.08,-0.908,-0.451,-20.447,-4.883,7.019
0.049,-0.957,-0.429,-18.982,-4.761,5.676
0.099,-0.854,-0.425,-19.47,-3.296,1.892
0.112,-0.856,-0.414,-16.357,-0.916,1.16
0.093,-0.895,-0.424,-10.437,-0.854,0.061
0.092,-0.909,-0.433,-6.531,0.732,-2.136
0.085,-0.916,-0.445,-3.418,2.014,-3.967
0.077,-0.918,-0.452,-1.587,3.174,-5.371
0.074,-0.932,-0.456,-1.099,3.357,-5.676
0.07,-0.925,-0.469,-1.404,2.502,-6.104
0.063,-0.934,-0.478,-2.502,2.686,-5.371
0.062,-0.938,-0.468,-3.235,2.747,-4.028
0.079,-0.961,-0.424,-4.639,1.587,-3.174
0.049,-0.927,-0.461,-6.47,-0.732,-2.625
0.068,-0.935,-0.44,-5.92,-0.488,-0.793
0.077,-0.948,-0.412,-6.47,-0.61,0.61
0.116,-0.961,-0.354,-7.446,-2.136,1.099
0.09,-0.944,-0.39,-8.484,-5.92,0.916
0.076,-0.936,-0.428,-6.104,-6.958,0.916
0.085,-0.931,-0.412,-5.432,-5.554,0.977
0.083,-0.913,-0.392,-6.958,-5.798,0.61
0.02,-0.892,-0.498,-6.836,-6.714,0.793
0.064,-0.903,-0.452,-4.761,-3.296,1.282
0.02,-0.885,-0.505,-4.639,-2.747,1.343
0.027,-0.899,-0.533,-1.343,0.366,1.831
0.067,-0.911,-0.484,-1.221,4.15,2.441
0.076,-0.928,-0.455,-0.549,3.845,3.174
0.074,-0.932,-0.456,0.244,1.526,3.418
0.074,-0.94,-0.46,-0.305,0.427,3.845
0.074,-0.96,-0.454,-1.953,-0.244,4.333
0.077,-0.958,-0.458,-5.127,-0.732,4.211
0.085,-0.97,-0.444,-9.033,-0.183,4.7
0.102,-0.956,-0.419,-12.329,0.61,4.822
0.145,-0.974,-0.356,-13.977,-0.122,4.089
0.154,-0.966,-0.339,-15.808,-3.662,2.502
0.157,-0.955,-0.319,-15.747,-7.812,0.488
0.084,-0.915,-0.395,-15.503,-12.085,-1.343
0.07,-0.914,-0.442,-12.451,-11.475,-2.014
0.068,-0.896,-0.439,-12.024,-8.24,-2.991
0.078,-0.88,-0.421,-10.681,-6.47,-3.601
0.046,-0.89,-0.46,-7.202,-6.775,-3.784
0.075,-0.918,-0.44,-3.54,-5.31,-3.967
0.056,-0.922,-0.455,-2.319,-4.395,-4.7
0.053,-0.91,-0.436,-0.549,-1.77,-5.493
0.045,-0.908,-0.436,0.732,0.183,-5.432
0.057,-0.915,-0.424,2.319,1.892,-5.127
0.044,-0.907,-0.415,3.723,2.38,-5.31
0.033,-0.903,-0.431,5.859,2.136,-5.127
0.036,-0.915,-0.455,7.812,2.93,-5.188
0.066,-0.922,-0.418,8.484,4.395,-5.371
0.06,-0.927,-0.414,8.606,3.723,-5.249
0.59,-1.248,0.785,-9.46,-2.441,-37.048
0.69,-1.599,-0.081,42.786,-64.514,-46.692
0.332,-1.234,-0.722,55.664,-63.293,-78.918
-0.206,-0.269,-0.734,26.733,-2.808,-111.511
-0.306,0.489,-0.554,-6.897,65.43,-117.493
-0.225,0.717,-0.074,-37.354,108.521,-106.812
0.01,0.153,0.637,-55.42,113.098,-90.759
0.301,-0.907,0.71,-44.739,77.942,-75.134
0.435,-1.386,-0.188,-29.419,27.161,-91.492
0.86,-1.134,-0.985,-35.095,41.809,-141.724
1.361,-0.418,-0.505,-45.593,129.517,-189.697
2.271,-0.415,0.314,-28.625,189.941,-204.529
3.182,-1.739,1.574,-4.7,182.251,-213.257
3.311,-1.637,1.284,3.479,95.093,-258.118
2.469,-2.442,0.274,17.639,5.188,-275.146
1.921,-2.024,-0.921,-30.334,-5.066,-329.163
1.557,-1.755,-1.177,-50.72,55.237,-358.582
1.399,-1.896,-1.012,-61.829,123.352,-353.149
1.208,-2.032,-0.427,-80.627,170.288,-340.82
1.003,-2.36,0.346,-55.603,179.077,-313.232
0.579,-2.347,0.719,-24.353,144.775,-295.837
0.193,-2.263,0.654,-5.737,97.229,-283.63
-0.06,-2.052,0.51,-12.878,65.369,-282.776
-0.237,-1.815,0.118,-33.142,44.495,-285.645
-0.234,-1.68,-0.124,-53.833,31.494,-279.175
-0.226,-1.544,-0.357,-66.833,18.921,-269.531
-0.151,-1.39,-0.485,-64.148,10.803,-259.399
0.041,-1.319,-0.608,-46.265,15.015,-242.981
0.274,-1.246,-0.518,-25.635,32.471,-224.365
0.461,-1.131,-0.321,-10.193,54.199,-209.167
0.604,-1.066,-0.081,1.953,70.618,-194.092
0.788,-0.92,0.23,7.568,72.632,-182.8
0.795,-0.802,0.376,9.094,51.636,-169.495
0.617,-0.757,0.336,15.381,11.292,-148.499
0.359,-0.9,0.133,17.883,-35.889,-121.216
-0.027,-1.118,-0.165,9.644,-78.308,-98.389
-0.429,-1.415,-0.527,5.615,-101.318,-80.994
-0.681,-1.757,-0.822,33.386,-95.032,-65.857
-0.755,-1.988,-0.892,93.872,-63.354,-58.716
-0.709,-2.1,-0.724,166.687,-25.33,-58.899
-0.635,-2.158,-0.439,226.562,1.77,-62.012
-0.426,-2.134,-0.086,257.019,10.376,-68.115
-0.484,-2.018,0.104,264.404,-0.916,-72.083
-0.735,-1.744,0.178,253.784,-12.451,-76.965
-0.81,-1.463,0.154,218.933,-18.127,-88.806
-0.738,-1.053,0.061,160.278,-23.132,-105.591
-0.526,-0.78,-0.041,115.723,-31.25,-113.464
-0.394,-0.692,-0.309,88.745,-38.452,-111.45
-0.292,-0.488,-0.5,61.035,-36.194,-112.793
-0.257,-0.447,-0.616,32.532,-28.381,-102.417
-0.102,-0.626,-0.879,-2.258,-23.743,-79.773
0.042,-0.682,-0.938,-52.307,-7.019,-68.542
0.102,-0.78,-0.737,-81.726,10.193,-57.495
0.039,-1.009,-0.42,-62.439,20.203,-34.668
-0.109,-1.194,-0.123,-7.568,31.189,-13.367
-0.184,-1.25,0.122,62.622,47.852,-5.615
-0.216,-1.075,0.293,95.703,47.852,-16.113
-0.238,-0.905,0.369,78.552,24.17,-30.334
-0.266,-0.852,0.164,31.25,-12.878,-36.133
-0.31,-0.925,-0.205,-26.794,-48.645,-30.701
-0.407,-1.062,-0.544,-75.256,-66.345,-19.775
-0.538,-1.23,-0.752,-95.52,-57.251,-7.874
-0.604,-1.411,-0.748,-78.735,-27.1,1.465
-0.528,-1.492,-0.543,-42.847,11.23,0.0
-0.338,-1.375,-0.402,-11.169,37.72,-13.733
-0.127,-1.172,-0.378,5.859,54.26,-28.259
0.065,-1.004,-0.363,14.709,62.561,-35.339
0.189,-0.878,-0.302,24.17,57.434,-35.522
0.188,-0.776,-0.219,34.485,40.039,-30.884
0.114,-0.725,-0.146,39.307,19.958,-20.081
0.029,-0.731,-0.159,37.659,-0.183,-7.141
-0.055,-0.804,-0.234,32.288,-17.395,4.944
-0.14,-0.904,-0.307,24.475,-30.334,15.747
-0.23,-0.997,-0.381,15.686,-39.185,23.621
-0.3,-1.056,-0.426,7.568,-42.847,26.428
-0.268,-1.067,-0.415,3.235,-40.039,22.888
-0.158,-1.107,-0.368,4.028,-34.912,16.602
-0.047,-1.187,-0.298,7.019,-23.376,10.925
0.045,-1.19,-0.233,8.118,-2.197,5.005
0.099,-1.028,-0.107,2.625,18.127,-1.831
0.053,-0.733,-0.147,-10.925,15.076,-6.348
0.042,-0.543,-0.212,-26.062,-2.38,-3.357
-0.033,-0.375,-0.301,-32.104,-21.301,7.812
-0.161,-0.351,-0.395,-14.954,-36.194,29.724
-0.256,-0.507,-0.444,11.414,-38.757,49.805
-0.353,-0.642,-0.479,28.87,-31.86,57.495
-0.352,-0.839,-0.481,33.142,-22.583,58.472
-0.249,-1.036,-0.41,23.682,-16.541,50.232
-0.104,-1.221,-0.283,12.512,-14.343,37.354
-0.011,-1.385,-0.172,8.667,-17.334,24.17
0.002,-1.48,-0.138,9.277,-23.804,11.292
-0.055,-1.438,-0.185,9.399,-30.945,-0.305
-0.11,-1.389,-0.36,8.85,-35.95,-7.019
-0.176,-1.326,-0.575,2.136,-33.997,-9.216
-0.217,-1.231,-0.679,-13.245,-21.362,-5.493
-0.224,-1.057,-0.573,-24.292,-4.15,-0.061
-0.231,-0.91,-0.401,-16.968,7.507,6.897
-0.231,-0.772,-0.324,-2.625,10.925,9.277
-0.187,-0.651,-0.331,4.639,14.221,7.08
-0.124,-0.565,-0.367,5.31,17.09,2.197
-0.054,-0.535,-0.397,2.808,17.761,-1.587
0.022,-0.567,-0.428,-5.005,15.259,-1.526
0.097,-0.631,-0.437,-17.517,10.559,0.244
0.136,-0.714,-0.428,-28.931,4.395,4.944
0.124,-0.781,-0.387,-32.288,-3.784,12.207
0.075,-0.851,-0.337,-20.081,-8.545,18.188
-0.008,-0.919,-0.278,1.892,-9.094,21.606
-0.096,-0.951,-0.242,20.996,-5.737,22.583
-0.113,-0.948,-0.248,32.41,0.305,21.729
-0.064,-0.959,-0.284,34.668,7.69,22.461
0.014,-1.004,-0.375,30.396,9.583,27.71
0.104,-1.145,-0.462,24.048,3.601,38.574
0.094,-1.228,-0.508,19.775,-6.897,50.537
-0.033,-1.213,-0.411,26.55,-9.644,58.594
-0.141,-1.13,-0.228,44.434,-1.709,58.594
-0.135,-0.997,-0.077,52.673,8.667,49.133
-0.044,-0.894,-0.016,43.64,12.085,36.804
0.055,-0.868,-0.084,23.315,5.005,27.771
0.071,-0.909,-0.253,-3.662,-14.16,22.339
-0.243,-1.329,-0.654,-81.36,-41.382,27.527
-0.259,-1.372,-0.606,-62.256,-20.752,28.992
-0.181,-1.343,-0.553,-39.429,4.15,24.109
-0.032,-1.191,-0.499,-26.733,25.879,17.578
0.088,-0.97,-0.4,-21.362,36.133,14.221
0.147,-0.797,-0.299,-10.681,36.011,15.93
0.166,-0.68,-0.228,1.831,27.466,19.348
0.144,-0.61,-0.218,8.423,15.198,22.522
0.095,-0.58,-0.244,10.925,4.456,26.184
0.049,-0.607,-0.296,11.414,-1.221,30.334
0.016,-0.662,-0.341,8.606,-2.197,34.058
0.004,-0.777,-0.388,4.456,-2.502,38.269
0.009,-0.952,-0.445,-1.709,-1.465,42.175
0.027,-1.131,-0.438,-14.099,-0.061,45.105
0.032,-1.342,-0.309,-29.602,0.061,47.058
-0.003,-1.499,-0.278,-43.457,-3.601,43.579
0.007,-1.483,-0.241,-52.49,-0.732,35.95
0.043,-1.425,-0.215,-42.358,8.24,33.264
0.082,-1.352,-0.194,-23.193,15.93,29.968
0.128,-1.315,-0.204,-8.301,20.935,26.428
0.167,-1.257,-0.249,-0.916,23.254,22.461
0.185,-1.136,-0.268,-3.967,22.461,19.958
0.144,-1.003,-0.257,-16.357,17.639,20.935
0.108,-0.882,-0.204,-31.86,9.155,23.01
0.091,-0.816,-0.164,-40.527,0.61,25.879
0.098,-0.782,-0.133,-40.588,-5.798,27.832
0.117,-0.775,-0.128,-32.349,-12.634,28.503
0.144,-0.78,-0.144,-20.447,-16.846,26.978
0.166,-0.78,-0.185,-8.24,-16.968,22.766
0.183,-0.763,-0.251,-0.183,-15.381,17.639
0.205,-0.762,-0.346,0.0,-11.902,14.16
0.238,-0.773,-0.438,-8.667,-8.789,13.0
0.268,-0.82,-0.47,-21.545,-6.592,14.771
0.298,-0.918,-0.435,-29.114,-5.371,19.104
0.317,-1.009,-0.35,-31.921,-6.836,25.33
0.299,-1.05,-0.232,-27.039,-10.681,30.884
0.248,-1.068,-0.142,-10.62,-15.869,34.668
0.19,-1.095,-0.153,10.559,-19.958,36.377
0.124,-1.111,-0.238,24.231,-22.4,34.851
0.053,-1.107,-0.328,27.832,-21.057,31.677
0.004,-1.077,-0.342,26.123,-15.076,29.175
0.021,-1.06,-0.298,21.057,-6.592,28.992
0.072,-1.084,-0.243,13.184,-1.831,33.691
0.094,-1.129,-0.22,5.615,-2.991,41.809
0.081,-1.158,-0.197,5.249,-6.897,49.622
0.062,-1.191,-0.153,13.733,-9.338,54.993
0.035,-1.249,-0.108,27.527,-12.329,55.481
0.014,-1.282,-0.11,37.537,-18.311,48.157
0.013,-1.256,-0.153,36.438,-25.757,35.156
0.031,-1.191,-0.225,21.973,-31.006,19.409
0.088,-1.122,-0.297,-4.639,-31.433,2.93
0.178,-1.058,-0.381,-38.33,-30.151,-11.78
0.262,-1.01,-0.441,-70.129,-29.846,-22.888
0.294,-0.922,-0.476,-88.928,-35.278,-28.076
0.29,-0.849,-0.521,-89.294,-42.236,-22.827
0.285,-0.839,-0.615,-67.749,-44.312,-7.996
0.298,-0.801,-0.601,-29.053,-31.738,10.742
0.357,-0.788,-0.48,27.832,-7.507,26.794
0.426,-0.721,-0.244,87.341,20.447,31.677
0.389,-0.602,0.048,137.024,39.185,31.189
0.289,-0.53,0.317,164.124,51.208,28.625
0.22,-0.442,0.445,144.348,53.345,22.888
0.163,-0.38,0.427,91.675,41.687,17.822
0.094,-0.311,0.262,45.532,17.395,12.268
0.099,-0.312,0.21,12.512,-7.141,7.385
0.204,-0.41,0.027,-6.226,-38.452,1.465
0.339,-0.577,-0.251,-17.456,-72.449,-8.057
0.449,-0.767,-0.562,-30.151,-93.14,-20.02
0.467,-0.872,-0.739,-48.096,-86.914,-30.579
0.496,-1.029,-0.767,-52.795,-56.519,-29.907
0.675,-1.202,-0.613,-43.579,-11.902,-19.104
0.903,-1.264,-0.239,-26.794,25.818,-12.878
0.961,-1.187,0.022,6.653,37.231,-10.864
0.891,-1.003,0.093,35.034,29.297,-9.338
0.817,-0.676,0.013,34.79,17.456,-7.812
0.616,-0.508,-0.198,42.175,6.104,0.427
0.462,-0.424,-0.336,65.308,3.662,3.174
0.547,-0.207,-0.339,81.848,1.892,1.953
0.622,-0.216,-0.457,107.544,-8.667,12.024
0.531,-0.695,-0.328,119.202,-16.846,18.127
0.485,-1.318,-0.316,91.98,-27.466,13.062
0.394,-2.154,-0.242,65.796,-28.503,4.761
0.11,-2.513,-0.345,51.88,-19.287,-16.479
0.138,-2.082,-0.297,59.326,13.55,-32.349
0.239,-1.375,-0.182,63.965,46.387,-26.245
0.368,-1.128,-0.172,63.232,52.979,-4.089
0.461,-1.155,-0.245,50.903,31.006,10.986
0.519,-1.035,-0.405,21.667,-1.221,11.841
0.484,-0.859,-0.504,-7.812,-24.719,5.31
0.402,-0.7,-0.498,-25.208,-33.875,-2.869
0.262,-0.642,-0.374,-20.691,-30.762,-5.432
0.189,-0.578,-0.23,-5.859,-21.423,-2.747
0.167,-0.545,-0.087,0.0,-11.78,3.418
0.157,-0.589,-0.013,-6.592,-9.766,11.414
0.069,-0.834,-0.105,-11.536,-18.066,19.653
-0.074,-1.196,-0.358,-7.874,-25.879,22.705
-0.179,-1.389,-0.662,0.122,-19.47,18.494
-0.227,-1.5,-0.681,12.512,6.348,12.146
-0.13,-1.252,-0.49,11.047,36.072,2.136
-0.023,-1.098,-0.26,4.578,53.101,0.183
0.064,-1.048,-0.15,-5.371,48.706,-5.737
0.152,-0.908,-0.188,-11.169,33.936,-13.123
0.185,-0.8,-0.349,-11.475,20.996,-16.724
0.28,-0.805,-0.319,-7.996,16.968,-17.151
0.305,-0.761,-0.467,-21.484,6.348,-21.24
0.283,-0.739,-0.566,-29.175,1.099,-23.743
0.173,-0.719,-0.76,-37.231,1.709,-22.949
0.113,-0.773,-0.684,-27.954,13.611,-16.602
0.038,-0.841,-0.525,-23.315,19.836,-12.756
-0.095,-0.901,-0.542,-19.592,24.963,-10.742
0.005,-0.924,-0.491,-2.747,39.612,-6.531
0.087,-0.969,-0.241,8.789,53.467,-0.305
0.031,-0.951,-0.27,8.728,44.922,-2.197
0.135,-0.967,-0.405,18.188,37.964,-1.282
-0.074,-1.39,-0.473,28.32,32.166,2.319
0.156,-0.917,-0.604,-0.488,21.973,-10.254
0.056,-1.173,-0.452,-20.325,18.555,-9.399
0.029,-1.266,-0.509,-34.912,19.226,-10.803
0.183,-0.939,-0.487,-47.119,29.236,-12.756
0.227,-0.474,0.399,-47.668,22.522,-76.965
0.069,0.045,-0.357,-26.917,-17.883,-104.126
0.288,0.308,-0.485,-21.301,-5.249,-119.324
1.125,0.273,-0.053,-4.7,34.79,-127.441
2.63,0.023,0.611,14.221,74.158,-135.132
3.75,-0.536,1.356,33.997,76.294,-144.165
3.664,-0.724,1.18,44.739,6.958,-169.128
2.376,-0.318,0.439,38.208,-79.407,-202.087
1.776,-0.007,-0.352,39.429,-106.262,-226.929
1.821,-0.222,-0.469,29.114,-48.401,-237.366
1.848,-1.082,-0.217,-5.127,27.466,-241.15
1.95,-2.504,0.116,-45.776,81.848,-247.742
2.251,-3.589,0.853,-63.293,123.84,-272.522
1.937,-3.759,1.237,-16.174,102.722,-301.758
0.824,-3.062,1.019,34.241,27.1,-323.73
-0.04,-2.185,0.659,16.846,-26.306,-324.89
-0.276,-1.494,0.513,-31.006,-31.982,-304.016
-0.204,-0.945,0.403,-49.011,-29.724,-279.297
-0.115,-0.618,0.273,-45.471,-37.72,-258.728
-0.112,-0.299,-0.058,-37.964,-52.612,-250.061
-0.012,-0.078,-0.535,-24.109,-53.162,-240.295
0.226,0.048,-0.665,-20.142,-27.283,-221.985
0.446,0.06,-0.456,-24.048,9.399,-192.688
0.634,-0.405,0.158,-17.944,44.739,-149.597
0.781,-0.874,0.826,-7.507,48.096,-124.878
0.724,-0.897,0.98,7.019,9.827,-125.793
0.409,-0.57,0.647,17.09,-38.025,-130.798
0.112,-0.377,0.258,13.245,-59.753,-130.066
-0.109,-0.343,0.069,11.108,-58.899,-128.906
-0.152,-0.298,0.003,18.372,-55.176,-129.395
-0.262,-0.416,-0.173,33.691,-52.49,-120.361
-0.342,-0.72,-0.264,39.795,-37.292,-106.628
-0.338,-1.1,-0.273,36.743,-12.39,-101.929
-0.179,-1.381,-0.247,54.993,8.85,-109.009
0.033,-1.507,-0.176,114.746,20.691,-120.117
0.12,-1.564,-0.003,194.275,21.606,-123.23
-0.03,-1.679,0.224,248.291,9.033,-114.38
-0.24,-1.813,0.325,259.644,-9.766,-101.257
-0.329,-1.946,0.187,234.07,-31.494,-88.135
-0.322,-2.084,-0.08,188.904,-48.523,-72.388
-0.387,-2.228,-0.426,149.231,-54.077,-54.321
-0.14,-2.539,-0.672,135.315,-45.044,-36.865
-0.115,-2.482,-0.37,140.625,-27.405,-25.879
-0.065,-2.784,-0.28,163.879,-19.897,-6.836
0.065,-2.402,0.032,162.964,-0.427,-11.658
0.068,-1.954,-0.06,153.32,-0.854,-7.141
-0.004,-1.528,-0.034,148.743,1.526,10.498
-0.109,-1.275,-0.009,116.394,-4.7,12.146
-0.056,-1.1,0.004,84.106,-11.475,8.362
-0.131,-0.947,-0.128,62.195,-22.339,3.784
-0.277,-0.944,-0.392,48.157,-29.785,5.859
-0.134,-1.104,-0.388,25.818,-20.569,0.854
-0.013,-1.11,-0.387,-2.808,-12.512,-18.372
-0.134,-1.066,-0.472,-20.813,-10.681,-38.391
-0.015,-0.935,-0.419,-18.799,4.639,-46.631
0.078,-0.928,-0.35,-5.92,17.883,-45.105
0.028,-0.831,-0.348,3.113,23.987,-49.194
0.058,-0.817,-0.321,7.507,27.161,-43.518
0.066,-0.797,-0.267,6.775,22.217,-33.569
0.004,-0.656,-0.237,-2.625,7.446,-22.339
-0.093,-0.697,-0.166,-5.493,-3.54,-2.197
-0.077,-0.827,-0.056,-1.404,-7.08,12.756
-0.133,-0.962,-0.073,2.075,-10.193,17.822
-0.169,-1.008,-0.245,5.798,-8.972,17.456
-0.099,-1.109,-0.311,4.272,6.592,16.235
0.079,-1.115,-0.27,-3.845,20.691,10.254
0.304,-1.129,-0.185,-6.47,22.644,6.104
0.38,-0.911,-0.2,-2.686,14.526,0.854
0.236,-0.938,-0.294,10.01,4.822,6.409
0.235,-0.992,-0.272,15.015,3.723,4.761
0.341,-0.8,-0.255,9.766,2.747,-2.441
0.404,-0.733,-0.27,28.503,-0.671,6.348
0.251,-0.724,-0.367,62.134,1.343,13.55
0.285,-0.984,-0.287,96.13,13.245,13.367
0.362,-1.171,-0.284,108.704,18.921,1.282
0.342,-1.301,-0.344,125.854,21.301,-16.968
0.197,-1.133,-0.364,144.165,24.292,-36.194
0.124,-1.097,-0.542,156.433,21.362,-39.673
0.15,-1.142,-0.83,148.987,18.494,-33.752
0.124,-1.098,-0.946,109.802,18.616,-30.09
0.261,-1.0,-0.729,50.72,20.447,-28.992
0.236,-1.044,-0.663,0.732,20.996,-31.921
-0.029,-0.935,-0.417,-29.785,29.114,-47.607
0.127,-0.917,-0.194,-36.133,33.875,-45.105
-0.002,-0.883,-0.088,-8.118,26.245,-32.227
0.289,-1.029,-0.3,33.508,12.939,-14.832
0.195,-0.961,-0.601,55.969,10.62,-24.109
0.085,-0.864,-0.361,33.752,15.564,-44.861
0.078,-0.92,-0.326,5.066,-0.671,-42.908
0.029,-1.021,-0.527,5.493,-17.09,-32.288
0.005,-0.982,-0.681,7.324,-21.24,-25.757
0.069,-0.924,-0.574,-1.953,-14.099,-21.24
0.018,-0.839,-0.373,-13.489,-8.24,-21.729
-0.018,-0.828,-0.268,-12.329,-4.517,-23.132
-0.089,-0.914,-0.427,2.991,-3.418,-18.982
-0.056,-0.984,-0.5,13.245,-0.244,-10.742
0.006,-1.003,-0.502,10.62,0.244,-0.671
0.022,-1.003,-0.527,3.418,-4.028,6.165
0.014,-0.98,-0.537,-7.141,-6.836,10.498
0.039,-0.965,-0.481,-20.264,-8.85,15.198
0.066,-0.961,-0.449,-28.503,-9.766,17.7
0.072,-0.965,-0.489,-31.494,-10.132,16.907
0.05,-0.946,-0.506,-39.551,-12.085,15.93
0.018,-0.934,-0.511,-50.964,-13.672,16.052
0.031,-0.944,-0.443,-61.34,-11.475,17.761
0.052,-0.982,-0.381,-67.322,-14.099,23.071
0.023,-0.988,-0.332,-65.674,-18.555,29.053
0.009,-0.962,-0.271,-58.594,-21.545,36.194
0.037,-0.958,-0.274,-49.133,-25.635,46.448
0.068,-0.94,-0.325,-39.612,-29.236,53.65
0.072,-0.963,-0.419,-35.706,-33.875,56.641
0.113,-0.999,-0.509,-43.701,-37.109,57.617
0.103,-1.078,-0.554,-64.026,-37.537,55.298
0.25,-1.036,-0.502,-89.722,-36.743,44.495
0.11,-1.03,-0.387,-107.605,-38.513,35.156
-0.009,-1.123,-0.373,-108.521,-42.542,28.564
-0.12,-1.119,-0.337,-101.807,-42.053,15.259
-0.355,-1.085,-0.574,-89.966,-38.94,5.859
-0.459,-1.03,-0.649,-61.279,-14.771,3.418
-0.265,-1.121,-0.354,-3.235,41.931,3.906
-0.172,-1.063,-0.17,15.991,52.734,-1.587
-0.05,-1.053,-0.09,28.748,56.824,-4.517
0.055,-1.019,-0.055,28.625,58.289,-10.803
0.172,-0.929,-0.047,15.076,55.664,-18.005
0.289,-0.86,-0.153,-3.479,48.401,-20.386
0.362,-0.818,-0.269,-25.024,39.551,-17.09
0.34,-0.854,-0.314,-46.692,29.541,-7.629
0.24,-0.968,-0.304,-61.707,20.569,4.761
0.163,-1.108,-0.268,-66.406,16.479,15.381
0.147,-1.212,-0.235,-62.317,17.822,21.545
0.123,-1.288,-0.188,-54.199,20.691,21.24
0.112,-1.315,-0.082,-48.279,23.804,13.062
0.123,-1.294,-0.04,-43.64,22.217,1.587
0.107,-1.173,-0.049,-39.673,14.221,-8.179
0.093,-0.976,-0.103,-35.889,2.197,-13.611
0.042,-0.744,-0.104,-30.579,-7.568,-12.573
-0.021,-0.636,-0.122,-19.043,-14.221,-2.319
-0.082,-0.673,-0.15,-4.211,-14.038,11.963
-0.099,-0.782,-0.186,11.23,-8.85,26.794
-0.093,-0.898,-0.198,21.851,-0.671,37.659
-0.047,-0.961,-0.218,22.766,7.08,41.443
0.025,-1.007,-0.263,20.142,9.766,39.246
0.123,-1.062,-0.333,17.273,7.812,34.058
0.207,-1.123,-0.401,15.381,2.38,30.396
0.26,-1.14,-0.376,16.846,-1.343,29.053
0.275,-1.161,-0.275,26.917,-3.174,30.823
0.233,-1.213,-0.158,44.8,-4.272,35.645
0.172,-1.284,-0.062,64.88,-4.272,40.466
0.13,-1.275,0.027,75.256,-3.296,41.748
0.141,-1.202,0.09,70.923,-4.272,39.001
0.158,-1.093,0.089,56.458,-9.033,34.18
0.149,-0.916,0.062,39.49,-14.099,28.503
0.149,-0.799,0.1,32.043,-15.93,24.841
0.136,-0.653,0.136,36.621,-17.09,20.081
0.128,-0.638,0.061,49.072,-19.653,15.808
0.148,-0.551,-0.018,57.678,-19.897,6.592
0.209,-0.543,-0.074,57.434,-25.879,-0.427
0.302,-0.447,-0.29,47.363,-43.03,-2.136
0.379,-0.368,-0.533,32.166,-56.152,-2.441
0.391,-0.404,-0.685,16.479,-62.561,0.305
0.363,-0.592,-0.824,-1.77,-61.646,6.653
0.302,-0.806,-0.74,-17.883,-48.706,9.827
0.375,-0.99,-0.567,-24.719,-25.452,14.648
0.548,-1.003,-0.187,-16.846,8.24,13.611
0.714,-0.856,0.201,2.136,40.039,7.141
0.781,-0.647,0.355,15.442,54.688,4.944
0.776,-0.541,0.373,13.367,61.951,6.165
0.757,-0.528,0.296,0.305,65.674,10.01
0.782,-0.58,0.202,-10.132,63.66,12.207
0.787,-0.629,0.135,-13.428,53.345,7.324
0.782,-0.679,0.023,-7.996,32.898,-0.793
0.756,-0.765,-0.129,3.601,7.935,-6.897
0.708,-0.84,-0.279,13.733,-9.583,-12.329
0.702,-0.924,-0.332,17.639,-16.174,-15.747
0.731,-1.034,-0.294,14.893,-16.968,-16.968
0.738,-1.131,-0.228,9.216,-17.517,-16.907
0.669,-1.207,-0.159,6.897,-19.836,-15.381
0.514,-1.255,-0.122,7.874,-22.583,-13.428
0.332,-1.262,-0.101,10.193,-22.278,-12.512
0.171,-1.253,-0.094,10.315,-18.616,-13.0
0.057,-1.227,-0.102,10.925,-13.428,-16.357
-0.03,-1.161,-0.154,12.695,-8.911,-22.461
-0.086,-1.136,-0.228,12.512,-4.517,-28.198
-0.094,-1.115,-0.306,9.216,-0.061,-33.569
-0.081,-1.072,-0.419,5.005,3.845,-39.795
-0.06,-1.009,-0.438,3.601,8.85,-44.861
-0.007,-0.934,-0.479,5.066,11.658,-48.889
0.026,-0.845,-0.508,11.047,12.634,-53.04
0.055,-0.734,-0.542,19.165,12.268,-57.373
0.057,-0.637,-0.588,27.588,11.047,-60.303
0.024,-0.613,-0.585,34.912,11.047,-60.974
-0.053,-0.776,-0.566,38.086,11.108,-59.387
-0.153,-1.094,-0.552,32.288,14.954,-59.326
-0.152,-1.388,-0.482,20.569,26.672,-63.049
0.055,-1.401,-0.323,15.137,36.682,-65.43
0.06,-1.411,-0.333,31.006,34.485,-56.763
0.054,-1.345,-0.481,56.824,25.391,-43.64
0.188,-1.129,-0.535,61.707,20.142,-27.527
0.24,-1.027,-0.481,41.199,14.648,-6.226
0.172,-0.977,-0.454,14.526,3.967,9.766
0.117,-0.954,-0.39,-3.845,-2.808,21.423
0.069,-0.934,-0.343,-13.306,-6.653,28.931
0.023,-0.941,-0.314,-14.771,-6.897,32.837
-0.002,-0.953,-0.257,-9.277,-3.54,32.471
-0.023,-0.924,-0.23,-0.854,0.183,28.748
-0.015,-0.912,-0.203,9.277,4.944,23.499
-0.011,-0.883,-0.213,15.686,9.094,15.808
0.012,-0.86,-0.243,20.203,12.085,7.69
0.041,-0.852,-0.258,22.827,13.794,1.221
0.069,-0.847,-0.252,21.851,12.207,-3.479
0.048,-0.834,-0.376,21.301,6.653,-6.897
0.044,-0.895,-0.503,26.672,5.371,-7.751
0.097,-0.933,-0.512,30.762,9.888,-7.141
0.14,-0.97,-0.503,33.752,11.475,-4.883
0.139,-1.031,-0.496,37.354,8.545,-1.648
0.08,-1.089,-0.512,36.682,4.089,0.61
0.042,-1.076,-0.518,29.358,2.808,1.831
0.004,-1.075,-0.5,17.09,2.747,2.991
0.027,-1.012,-0.474,-0.305,1.831,2.747
0.067,-0.989,-0.46,-18.066,1.77,2.563
0.168,-0.895,-0.46,-30.212,0.916,3.54
0.248,-0.878,-0.462,-31.799,-0.732,7.019
0.235,-0.891,-0.449,-25.879,-3.784,9.521
0.153,-0.96,-0.433,-24.292,-6.226,8.24
0.134,-0.957,-0.387,-27.527,-5.066,4.456
0.124,-0.941,-0.351,-29.663,-2.808,0.793
0.115,-0.93,-0.336,-28.076,-1.526,-1.221
0.116,-0.932,-0.336,-24.597,-1.526,-2.686
0.117,-0.943,-0.34,-21.79,-0.977,-3.845
0.119,-0.95,-0.338,-19.409,-0.061,-5.615
0.114,-0.955,-0.346,-17.944,0.854,-7.446
0.165,-0.973,-0.277,-17.456,0.549,-9.705
0.128,-0.965,-0.319,-19.226,-4.456,-12.146
0.099,-0.966,-0.369,-16.174,-8.972,-12.512
0.092,-0.988,-0.393,-15.198,-8.972,-11.353
0.104,-0.995,-0.369,-17.09,-7.751,-9.46
0.124,-0.986,-0.336,-18.738,-8.85,-8.179
0.108,-0.978,-0.346,-18.188,-10.803,-6.165
4.0,-0.539,1.474,-64.758,164.673,-223.572
4.0,-1.478,2.532,-76.843,134.094,-239.868
4.0,-1.942,1.747,-80.75,-4.333,-283.386
3.33,-2.623,0.633,-70.129,-89.844,-294.922
2.421,-2.735,0.437,-61.34,-66.162,-305.969
1.632,-2.166,0.067,-33.569,-58.105,-331.97
0.274,-2.161,0.288,16.113,-62.927,-314.392
-1.075,-2.242,0.534,61.523,-79.346,-288.574
-1.824,-2.708,1.015,94.666,-71.289,-270.935
-2.103,-3.013,1.213,78.308,-57.373,-277.039
-1.81,-2.963,0.858,6.958,-64.514,-304.016
-1.595,-2.214,0.174,-73.425,-81.848,-327.515
-1.168,-1.551,-0.108,-128.113,-78.186,-315.918
-0.364,-1.045,-0.02,-141.174,-53.223,-286.011
0.539,-0.719,0.348,-108.032,-28.564,-257.019
1.089,-0.249,0.543,-50.842,-19.775,-231.506
1.452,0.216,0.751,-14.893,-15.015,-192.81
1.42,0.35,1.018,-11.292,-19.409,-141.174
0.658,-0.151,0.901,-16.235,-55.786,-92.651
-0.144,-0.875,0.536,-12.756,-89.417,-61.462
-0.615,-1.374,0.244,-6.226,-87.952,-55.115
-0.795,-1.759,0.151,7.08,-67.993,-60.73
-0.881,-1.97,0.224,27.344,-44.983,-64.697
-0.908,-1.867,0.303,52.063,-29.236,-67.261
-0.961,-1.541,0.301,85.876,-25.574,-69.214
-1.131,-1.346,0.311,122.559,-34.912,-68.42
-1.366,-1.303,0.36,140.503,-53.955,-62.988
-1.525,-1.33,0.328,132.568,-73.059,-62.256
-1.524,-1.354,0.179,106.506,-86.304,-72.937
-1.372,-1.327,-0.012,79.102,-87.585,-91.003
-1.139,-1.22,-0.161,61.035,-69.58,-108.704
-0.908,-0.982,-0.247,54.626,-34.485,-119.385
-0.614,-0.771,-0.254,61.096,5.859,-117.92
-0.375,-0.595,-0.239,72.937,37.659,-109.009
-0.192,-0.55,-0.139,79.285,53.101,-94.116
-0.116,-0.546,0.045,79.529,48.34,-82.275
-0.128,-0.582,0.237,70.557,31.982,-73.425
-0.159,-0.674,0.346,57.922,16.296,-60.181
-0.23,-0.724,0.415,42.969,7.935,-44.067
-0.349,-0.732,0.413,28.809,6.287,-30.273
-0.426,-0.738,0.375,20.02,9.338,-20.996
-0.416,-0.727,0.316,15.32,12.634,-17.7
-0.386,-0.709,0.286,13.611,10.803,-17.151
-0.338,-0.751,0.213,17.212,6.104,-13.184
-0.289,-0.772,0.176,23.682,2.38,-7.996
-0.283,-0.708,0.219,28.442,-3.906,-4.395
-0.203,-0.865,0.204,34.973,-9.766,3.357
-0.201,-0.839,0.28,35.461,-14.404,6.592
-0.236,-0.826,0.235,41.748,-16.235,14.526
-0.211,-0.947,0.223,44.556,-11.963,25.513
-0.256,-0.953,0.071,38.635,-17.944,32.471
-0.323,-0.955,-0.035,30.396,-20.996,41.931
-0.322,-1.045,-0.094,28.198,-14.893,47.424
-0.311,-0.999,-0.029,30.151,-2.808,43.823
-0.281,-0.934,0.04,33.997,9.827,38.025
-0.237,-0.88,0.079,38.635,18.372,31.738
-0.2,-0.824,0.026,42.786,19.836,26.184
-0.12,-0.889,0.022,46.814,19.531,24.963
-0.039,-0.978,0.044,52.49,10.071,22.583
-0.041,-1.02,0.062,64.514,-7.019,20.142
-0.111,-1.025,0.055,83.801,-19.775,21.24
-0.188,-0.986,0.025,101.013,-22.156,23.01
-0.219,-0.927,-0.019,104.675,-15.381,23.193
-0.189,-0.88,-0.044,95.215,-3.784,20.996
-0.129,-0.856,-0.063,80.383,2.991,18.372
-0.027,-0.928,-0.1,65.308,1.282,20.935
0.08,-1.047,-0.104,50.171,-7.935,28.931
0.095,-1.149,-0.071,39.307,-23.56,38.025
-0.001,-1.176,-0.035,41.687,-40.1,47.18
-0.119,-1.128,-0.013,55.359,-46.631,53.65
-0.143,-1.095,-0.046,65.918,-43.03,56.946
-0.086,-1.048,-0.112,58.533,-38.94,60.669
0.001,-1.037,-0.18,43.335,-36.255,63.965
0.064,-1.06,-0.219,32.898,-36.316,65.613
0.075,-1.069,-0.253,30.823,-41.687,64.148
-0.012,-1.085,-0.291,44.189,-50.171,59.387
-0.182,-1.096,-0.321,63.965,-55.725,49.194
-0.286,-0.942,-0.393,62.866,-54.321,36.316
-0.384,-0.821,-0.482,56.152,-54.749,23.682
-0.521,-0.749,-0.498,51.086,-49.194,11.902
-0.604,-0.718,-0.472,37.842,-35.889,4.7
-0.552,-0.81,-0.427,22.583,-15.442,5.554
-0.402,-1.022,-0.334,11.047,8.85,16.052
-0.175,-1.243,-0.166,2.319,30.64,32.166
0.086,-1.478,0.038,4.15,43.64,49.377
0.273,-1.639,0.199,15.259,40.344,59.875
0.325,-1.722,0.226,29.175,21.118,59.509
0.252,-1.669,0.112,34.729,-6.531,48.401
0.115,-1.518,-0.052,31.189,-32.41,33.691
-0.035,-1.328,-0.234,24.17,-47.913,22.644
-0.147,-1.181,-0.436,13.977,-52.185,16.418
-0.214,-1.077,-0.58,0.122,-47.791,14.465
-0.237,-1.022,-0.626,-15.198,-38.635,16.968
-0.219,-1.021,-0.567,-23.499,-26.306,22.705
-0.167,-1.031,-0.445,-19.226,-11.902,27.893
-0.089,-1.031,-0.306,-6.775,1.282,28.381
-0.014,-1.018,-0.22,4.395,9.644,23.56
0.025,-0.996,-0.19,9.644,10.193,15.503
0.037,-0.945,-0.192,8.728,7.324,7.385
0.034,-0.87,-0.208,4.272,3.906,0.977
0.028,-0.815,-0.212,-0.183,1.526,-2.075
0.005,-0.796,-0.182,-1.221,1.587,-1.343
-0.007,-0.821,-0.159,1.77,4.761,2.136
0.007,-0.873,-0.172,6.958,8.484,6.714
0.05,-0.908,-0.243,9.888,9.827,11.78
0.108,-0.928,-0.33,12.146,7.324,17.761
0.146,-0.968,-0.361,20.447,1.526,23.926
0.139,-1.001,-0.335,33.997,-6.836,29.419
0.088,-1.02,-0.286,43.823,-14.282,33.081
-0.003,-1.042,-0.236,48.462,-16.296,34.424
-0.067,-1.03,-0.209,49.927,-11.963,33.997
-0.069,-1.001,-0.221,49.438,-5.31,32.41
-0.054,-0.978,-0.256,44.25,0.305,30.762
-0.042,-0.989,-0.286,34.241,5.188,30.518
-0.026,-1.02,-0.278,21.423,9.094,31.494
0.001,-1.04,-0.24,10.071,10.437,31.372
0.015,-1.043,-0.195,2.93,6.958,30.884
0.001,-1.057,-0.185,1.282,-0.671,29.968
-0.027,-1.092,-0.25,2.625,-8.545,29.846
0.368,-1.045,-0.805,70.679,6.409,42.603
0.281,-1.131,-0.655,68.298,4.822,40.588
0.093,-1.252,-0.483,60.791,-0.793,35.339
-0.029,-1.352,-0.341,53.772,-4.272,25.024
-0.062,-1.45,-0.225,54.321,-5.798,9.705
-0.049,-1.654,-0.118,68.542,-9.277,-8.789
-0.119,-1.786,-0.102,84.717,-13.916,-27.71
-0.029,-1.926,0.0,87.097,-9.705,-38.391
0.132,-1.757,0.078,67.505,-5.859,-49.744
0.25,-1.34,0.019,35.706,-11.414,-55.847
0.272,-0.927,-0.053,1.648,-21.362,-52.002
0.218,-0.629,-0.137,-32.288,-32.166,-40.344
0.103,-0.441,-0.235,-63.721,-46.082,-25.696
-0.018,-0.318,-0.378,-83.74,-56.274,-12.695
-0.123,-0.188,-0.536,-89.966,-62.073,-5.066
-0.177,-0.119,-0.711,-81.482,-62.561,-0.916
-0.144,-0.139,-0.819,-62.378,-54.871,2.197
-0.015,-0.25,-0.798,-38.94,-40.283,3.723
0.165,-0.34,-0.662,-18.066,-23.865,3.418
0.399,-0.408,-0.371,5.554,-4.883,3.052
0.686,-0.626,-0.297,32.837,10.01,1.648
0.835,-0.717,-0.15,27.1,13.855,-2.747
0.907,-0.736,-0.031,21.118,14.709,-7.629
0.923,-0.805,0.005,21.057,12.756,-10.437
0.872,-0.87,-0.027,16.968,10.254,-9.277
0.794,-0.92,-0.077,4.272,9.277,-4.456
0.687,-0.969,-0.141,-11.23,7.08,3.052
0.572,-1.019,-0.218,-21.851,1.77,10.986
0.487,-1.074,-0.31,-21.79,-4.7,16.846
0.404,-1.095,-0.385,-16.418,-8.972,19.714
0.336,-1.077,-0.419,-13.062,-9.216,19.226
0.291,-1.057,-0.414,-12.695,-6.592,16.357
0.284,-1.04,-0.379,-12.939,-3.113,11.841
0.288,-1.042,-0.332,-12.573,0.061,6.592
0.288,-1.068,-0.277,-8.301,2.014,0.061
0.281,-1.128,-0.22,0.061,2.014,-7.751
0.263,-1.158,-0.232,13.0,-0.854,-17.639
0.23,-1.157,-0.281,29.419,-3.235,-25.146
0.186,-1.149,-0.316,44.067,-3.479,-28.015
0.13,-1.145,-0.312,52.734,-1.038,-26.978
0.072,-1.135,-0.287,53.406,1.709,-23.682
-0.014,-1.116,-0.28,33.142,4.211,-11.353
-0.045,-1.08,-0.332,1.343,10.864,-2.747
-0.023,-1.0,-0.297,-28.625,22.766,-0.671
0.002,-0.984,-0.265,-37.72,27.405,-0.671
0.037,-0.978,-0.238,-42.114,30.273,-1.831
0.078,-0.969,-0.227,-43.152,30.579,-3.54
0.116,-0.957,-0.232,-41.748,28.564,-5.737
0.143,-0.93,-0.252,-38.696,24.231,-7.935
0.148,-0.902,-0.274,-33.997,18.494,-9.277
0.134,-0.876,-0.29,-28.32,11.475,-9.888
0.104,-0.851,-0.307,-22.095,3.967,-9.338
0.071,-0.839,-0.326,-14.648,-2.808,-7.446
0.047,-0.842,-0.351,-6.592,-7.446,-4.7
0.045,-0.865,-0.371,1.221,-9.399,-1.648
0.057,-0.896,-0.379,8.301,-9.827,1.038
0.07,-0.922,-0.388,13.733,-9.521,2.747
0.078,-0.957,-0.394,18.494,-8.667,3.479
0.08,-0.98,-0.417,22.217,-7.141,3.235
0.079,-0.996,-0.425,23.865,-3.845,2.93
0.087,-0.99,-0.415,23.254,0.305,2.258
0.098,-0.967,-0.401,21.973,4.089,1.709
0.112,-0.951,-0.38,20.691,6.226,1.587
0.126,-0.938,-0.36,19.165,6.531,1.953
0.143,-0.929,-0.358,18.311,5.737,2.197
0.159,-0.962,-0.367,17.517,4.578,3.174
0.16,-1.002,-0.417,18.066,3.54,2.747
0.166,-1.0,-0.416,19.348,5.005,1.099
0.183,-0.999,-0.41,19.592,5.493,0.244
0.196,-0.984,-0.417,21.301,5.005,-0.488
0.19,-0.967,-0.417,23.315,3.845,-0.366
0.187,-0.96,-0.425,23.132,2.075,0.061
0.156,-0.989,-0.435,20.508,0.977,0.488
0.147,-0.991,-0.434,15.869,0.61,-0.183
0.14,-0.986,-0.43,10.254,0.244,-0.916
0.138,-0.983,-0.427,5.798,-0.977,-1.038
0.138,-0.979,-0.423,2.197,-2.441,-0.549
0.137,-0.973,-0.416,-2.014,-3.418,-0.061
0.139,-0.966,-0.404,-5.92,-3.967,0.427
0.144,-0.962,-0.389,-9.155,-4.15,0.488
0.146,-0.953,-0.376,-11.108,-4.028,-0.183
0.144,-0.946,-0.367,-11.841,-3.601,-1.343
0.144,-0.942,-0.364,-12.024,-2.991,-2.502
0.148,-0.943,-0.362,-12.207,-2.625,-3.174
0.178,-0.939,-0.337,-12.695,-2.991,-3.967
0.186,-0.939,-0.337,-12.573,-6.226,-4.639
0.173,-0.954,-0.356,-10.254,-10.986,-5.066
0.159,-0.96,-0.363,-9.033,-14.832,-5.188
0.153,-0.965,-0.365,-9.583,-18.005,-4.578
0.152,-0.962,-0.371,-9.827,-20.02,-3.784
0.15,-0.966,-0.367,-8.789,-21.301,-3.174
0.142,-0.952,-0.373,-7.812,-22.461,-2.686
0.126,-0.962,-0.371,-6.653,-22.4,-2.136
0.108,-0.97,-0.374,-7.385,-21.057,-2.258
0.107,-0.965,-0.37,-8.667,-17.517,-3.052
0.101,-0.954,-0.345,-9.033,-13.062,-3.174
0.103,-0.95,-0.325,-8.545,-9.46,-3.113
0.103,-0.947,-0.312,-7.568,-6.287,-3.052
0.111,-0.942,-0.313,-7.263,-3.723,-3.235
0.117,-0.932,-0.309,-6.897,-2.136,-3.418
0.119,-0.923,-0.307,-6.592,-1.77,-3.174
0.115,-0.925,-0.315,-5.615,-2.014,-2.197
0.109,-0.933,-0.324,-3.723,-2.136,-0.793
0.094,-0.989,-0.309,-1.221,-1.648,0.854
0.091,-0.999,-0.299,-1.099,-0.793,0.549
0.111,-0.976,-0.304,-1.343,0.183,0.305
0.123,-0.963,-0.318,0.366,0.977,0.732
0.119,-0.961,-0.326,2.502,1.404,1.038
0.115,-0.958,-0.326,2.869,2.197,0.854
0.121,-0.955,-0.316,2.808,3.662,0.671
0.13,-0.945,-0.305,3.723,4.761,0.549
0.137,-0.942,-0.302,5.615,4.761,0.366
0.137,-0.943,-0.309,8.118,4.517,0.183
0.136,-0.942,-0.318,10.315,4.15,0.0
0.133,-0.945,-0.33,11.963,3.723,-0.122
0.13,-0.956,-0.347,12.878,3.357,-0.061
0.122,-0.966,-0.359,13.184,2.869,-0.061
0.116,-0.979,-0.365,11.963,2.747,0.732
0.109,-0.982,-0.364,10.559,2.441,1.892
1.504,0.527,0.32,-36.682,1.099,-138.184
1.323,0.131,0.1,-42.297,-35.095,-131.653
1.182,-0.027,-0.029,-19.47,-49.683,-146.545
1.511,0.026,-0.178,8.118,-38.33,-168.64
2.319,0.245,-0.154,11.047,-4.028,-189.514
2.913,0.398,0.407,0.793,17.639,-196.899
2.939,0.668,0.705,1.77,-2.625,-212.646
3.125,0.592,0.483,19.165,-30.029,-231.14
3.338,-0.1,0.237,17.578,-24.597,-246.704
2.777,-1.549,-0.197,-9.094,2.991,-256.226
1.926,-2.841,-0.176,-108.765,53.65,-292.175
1.572,-3.891,0.51,-157.593,101.379,-339.661
0.89,-3.551,0.86,-46.204,64.331,-376.465
0.03,-2.175,0.684,108.521,-23.865,-399.231
-0.767,-1.138,0.632,177.185,-79.895,-397.278
-1.602,-0.731,0.525,148.132,-98.083,-372.07
-2.005,-0.669,0.005,87.158,-104.736,-357.3
-1.795,-0.662,-0.674,52.368,-82.581,-350.403
-1.249,-0.499,-1.059,27.344,-24.841,-317.139
-0.457,-0.69,-0.777,-6.47,54.749,-253.662
0.746,-1.239,-0.0,-48.523,126.282,-192.566
2.068,-1.471,0.715,-75.5,153.137,-167.236
2.746,-1.282,0.977,-68.604,107.544,-156.555
1.999,-0.609,0.912,-55.115,-2.136,-145.874
0.661,-0.245,0.649,-37.964,-110.413,-132.935
-0.313,0.042,0.091,-18.799,-157.349,-131.592
-0.965,0.104,-0.525,-4.089,-137.634,-138.977
-0.969,0.035,-0.667,2.686,-69.824,-150.208
-0.449,-0.416,-0.384,35.889,-0.183,-149.78
0.006,-1.05,0.324,99.426,36.865,-141.357
0.223,-1.652,0.781,171.265,26.55,-135.376
-0.063,-2.24,0.464,248.657,-20.935,-130.371
-0.506,-2.801,-0.204,296.753,-63.782,-122.742
-0.886,-3.1,-0.668,282.043,-77.393,-109.497
-1.173,-3.219,-0.815,255.432,-66.711,-82.275
-1.376,-3.29,-0.714,262.207,-55.847,-52.673
-1.547,-3.024,-0.605,283.508,-57.983,-49.927
-1.297,-2.401,-0.505,262.207,-43.03,-65.002
-0.742,-1.854,-0.42,196.167,-14.832,-69.275
-0.247,-1.642,-0.428,136.597,9.888,-55.786
0.036,-1.417,-0.37,83.923,26.978,-40.955
0.192,-1.272,-0.419,14.832,29.968,-24.78
0.477,-1.43,-0.254,-49.377,37.842,-17.395
0.149,-1.111,0.199,-87.219,29.785,-33.875
-0.174,-0.834,0.211,-62.073,5.188,-48.828
-0.612,-0.561,0.053,-18.738,-15.137,-65.125
-0.705,-0.475,-0.243,24.292,-25.879,-76.111
-0.873,-0.302,-0.743,56.519,-16.296,-79.773
-0.526,-0.655,-0.716,63.232,21.24,-66.772
-0.185,-0.815,-0.572,41.809,48.218,-59.326
-0.024,-1.022,-0.437,18.799,51.331,-50.476
-0.072,-1.249,-0.341,3.54,42.908,-36.621
-0.213,-1.43,-0.166,6.836,37.048,-23.987
-0.299,-1.452,-0.076,21.179,36.438,-23.01
-0.314,-1.288,-0.22,22.522,32.104,-32.471
-0.294,-1.047,-0.455,9.949,29.419,-40.955
-0.257,-0.834,-0.568,-2.258,36.499,-39.429
-0.17,-0.687,-0.423,-10.681,48.584,-28.625
-0.141,-0.556,-0.23,-11.963,52.551,-13.245
-0.076,-0.564,-0.209,-6.714,44.373,5.676
0.006,-0.716,-0.267,-5.798,30.457,20.63
0.003,-0.932,-0.292,-12.085,14.343,26.855
-0.106,-1.156,-0.268,-21.545,-1.16,30.457
-0.297,-1.3,-0.263,-28.381,-9.705,34.79
-0.453,-1.398,-0.197,-31.616,-5.493,37.354
-0.512,-1.336,-0.134,-33.63,7.141,34.912
-0.486,-1.206,-0.086,-33.936,20.996,30.762
-0.408,-1.04,-0.106,-33.63,27.893,27.039
-0.34,-0.899,-0.164,-33.691,27.527,25.574
-0.3,-0.78,-0.271,-37.048,21.79,27.527
-0.286,-0.713,-0.384,-44.739,14.893,33.081
-0.298,-0.709,-0.437,-54.382,12.39,41.748
-0.277,-0.763,-0.425,-60.73,16.235,50.964
-0.24,-0.832,-0.364,-58.167,24.231,59.57
-0.221,-0.876,-0.259,-47.424,35.217,65.979
-0.178,-0.936,-0.163,-34.302,45.288,70.618
-0.141,-1.125,-0.034,-25.33,50.049,74.219
-0.167,-1.043,0.115,-23.865,44.495,74.829
-0.094,-1.121,0.008,-22.278,32.837,77.82
-0.084,-1.127,-0.035,-26.245,29.053,77.271
-0.018,-1.151,0.002,-28.809,28.381,77.454
0.036,-1.127,-0.087,-35.278,20.813,72.754
0.013,-1.086,-0.195,-43.213,12.329,71.106
-0.059,-1.032,-0.24,-52.979,6.47,73.425
-0.115,-0.997,-0.189,-53.772,6.348,79.346
-0.134,-0.982,-0.079,-40.1,9.155,85.327
-0.099,-0.999,0.002,-17.09,9.827,88.562
-0.072,-1.01,-0.022,4.944,8.545,81.665
-0.042,-0.989,-0.087,22.583,11.23,65.735
0.033,-0.924,-0.132,32.227,18.372,45.105
0.135,-0.814,-0.193,29.602,24.597,24.841
0.239,-0.72,-0.308,17.029,25.818,10.132
0.318,-0.612,-0.408,-0.671,22.278,2.625
0.347,-0.544,-0.411,-14.099,12.085,6.042
0.294,-0.571,-0.323,-11.963,-2.441,22.705
0.193,-0.759,-0.188,12.939,-10.559,47.241
0.089,-1.034,-0.03,56.641,-5.615,69.763
0.115,-1.276,0.102,107.849,10.742,76.904
0.316,-1.363,0.111,138.794,22.644,63.232
0.532,-1.38,-0.051,126.831,12.451,37.354
0.75,-1.471,-0.318,77.881,-14.465,11.047
0.847,-1.666,-0.5,10.559,-42.542,-11.841
0.778,-1.885,-0.465,-42.175,-58.594,-25.269
0.569,-1.973,-0.132,-45.288,-53.04,-25.269
0.419,-1.765,0.213,-7.385,-28.748,-20.752
0.449,-1.377,0.474,0.366,-6.836,-17.944
0.444,-1.039,0.502,-40.039,-10.193,-16.602
0.333,-0.856,0.314,-71.594,-37.231,-15.503
0.206,-0.81,0.035,-74.402,-67.078,-17.273
0.119,-0.776,-0.171,-57.556,-79.956,-23.987
0.118,-0.715,-0.262,-30.334,-71.716,-35.095
0.237,-0.425,-0.407,20.813,-40.039,-62.256
0.282,-0.227,-0.455,43.701,-25.879,-67.139
0.257,-0.094,-0.42,65.125,-12.634,-60.059
0.193,-0.103,-0.326,76.233,-3.235,-42.969
0.142,-0.178,-0.219,69.641,0.854,-22.156
0.125,-0.226,-0.094,54.138,0.977,-3.418
0.202,-0.287,-0.078,42.297,-1.343,10.742
0.323,-0.362,-0.032,35.645,-1.16,19.165
-0.251,-1.478,-0.343,39.551,-9.216,33.142
-0.177,-1.49,-0.353,39.734,4.761,20.386
-0.019,-1.4,-0.386,36.377,19.287,3.479
0.179,-1.175,-0.399,35.339,30.334,-12.634
0.32,-0.905,-0.379,42.725,35.217,-26.123
0.395,-0.669,-0.339,51.88,32.532,-31.677
0.426,-0.528,-0.292,54.871,25.513,-28.992
0.405,-0.534,-0.28,50.476,16.174,-18.066
0.328,-0.635,-0.283,45.105,8.789,-4.578
0.226,-0.885,-0.162,47.119,4.761,9.949
0.155,-1.242,-0.16,51.575,-1.526,21.667
0.064,-1.567,-0.146,45.959,-4.211,22.583
0.012,-1.77,-0.081,36.682,-3.54,16.968
-0.036,-1.854,-0.04,35.95,-6.958,7.446
-0.1,-1.739,-0.073,35.522,-14.282,-6.47
-0.108,-1.426,-0.123,28.931,-19.653,-21.484
-0.071,-1.118,-0.222,19.348,-17.7,-31.189
0.011,-0.77,-0.266,5.066,-9.949,-35.339
0.129,-0.465,-0.374,-2.563,-2.747,-32.471
0.201,-0.319,-0.486,-4.517,0.549,-22.766
0.233,-0.38,-0.509,-2.991,3.723,-9.827
0.229,-0.538,-0.464,-3.052,5.432,1.831
0.191,-0.701,-0.375,-9.338,6.409,11.108
0.136,-0.847,-0.284,-17.212,8.972,17.151
0.087,-1.078,-0.242,-20.508,13.672,18.921
0.032,-1.129,-0.249,-18.799,21.057,13.733
0.057,-1.197,-0.264,-8.911,29.785,12.207
0.115,-1.175,-0.311,3.601,33.63,11.353
0.132,-1.157,-0.351,15.198,30.518,12.817
0.131,-1.199,-0.37,23.01,25.635,15.198
0.121,-1.265,-0.343,23.193,21.179,15.869
0.114,-1.306,-0.298,16.785,18.372,14.832
0.109,-1.295,-0.275,7.08,17.883,11.841
0.135,-1.226,-0.287,-5.371,19.226,6.653
0.181,-1.101,-0.304,-20.264,21.362,0.549
0.238,-0.972,-0.331,-32.288,21.79,-3.967
0.273,-0.847,-0.394,-39.795,18.127,-6.897
0.267,-0.744,-0.473,-44.739,11.108,-6.714
0.234,-0.674,-0.517,-47.546,4.883,-4.15
0.193,-0.654,-0.507,-45.166,1.77,-0.549
0.154,-0.702,-0.48,-36.621,0.61,4.028
0.13,-0.761,-0.441,-24.963,0.916,7.751
0.118,-0.808,-0.4,-11.78,1.77,9.766
0.13,-0.854,-0.375,0.916,2.93,10.803
0.152,-0.888,-0.364,9.705,3.54,9.277
0.185,-0.905,-0.354,13.489,4.211,7.324
0.22,-0.913,-0.341,14.465,4.333,6.47
0.256,-0.953,-0.376,14.893,3.479,6.47
0.266,-0.978,-0.426,16.296,3.784,7.08
0.279,-1.002,-0.416,17.578,5.554,8.545
0.257,-1.017,-0.402,16.357,4.944,8.423
0.22,-1.022,-0.395,13.062,2.93,6.836
0.18,-1.029,-0.392,8.972,1.892,5.066
0.165,-1.014,-0.381,4.883,3.052,2.441
0.179,-0.992,-0.366,1.343,5.066,-0.183
0.19,-0.977,-0.36,-1.343,6.287,-2.258
0.198,-0.958,-0.344,-3.296,6.897,-4.15
0.203,-0.934,-0.323,-4.7,7.202,-6.226
0.198,-0.921,-0.318,-4.639,6.531,-8.24
0.179,-0.932,-0.326,-3.174,5.676,-10.742
0.178,-0.945,-0.32,-2.136,6.226,-13.794
0.176,-0.955,-0.315,-0.793,6.958,-16.296
0.167,-0.964,-0.314,2.014,6.897,-18.188
0.163,-0.968,-0.313,5.432,6.409,-19.348
0.153,-0.968,-0.321,8.911,6.104,-20.203
0.174,-0.945,-0.3,12.207,6.104,-20.752
0.196,-0.917,-0.282,14.526,3.784,-19.653
0.17,-0.924,-0.307,18.433,-1.343,-17.273
0.149,-0.944,-0.328,21.545,-4.7,-15.32
0.119,-0.958,-0.36,22.583,-5.981,-14.221
0.086,-0.966,-0.384,21.973,-4.578,-14.099
0.083,-0.973,-0.39,19.592,-1.404,-14.465
0.092,-0.984,-0.404,15.442,1.526,-14.587
0.109,-0.996,-0.418,10.559,2.93,-13.794
0.128,-1.0,-0.421,5.188,1.953,-13.0
0.137,-0.983,-0.396,0.61,0.0,-11.597
0.109,-0.978,-0.374,-1.038,-2.197,-9.521
0.059,-0.99,-0.354,0.427,-3.113,-7.507
0.04,-0.974,-0.328,2.38,-2.441,-5.737
0.027,-0.964,-0.318,3.601,-1.465,-3.784
0.069,-0.937,-0.33,8.118,1.587,-1.953
0.105,-0.945,-0.366,10.864,2.563,-2.075
0.124,-0.942,-0.373,7.263,2.808,-1.282
0.072,-0.955,-0.37,6.042,3.296,-0.977
0.069,-0.935,-0.355,6.714,3.479,-1.221
0.081,-0.932,-0.354,9.094,2.502,0.122
0.086,-0.936,-0.362,11.536,0.732,1.831
0.094,-0.95,-0.373,12.146,0.671,3.113
0.101,-0.965,-0.383,11.414,1.404,3.601
0.111,-0.958,-0.38,10.62,2.502,3.296
0.117,-0.947,-0.382,11.414,2.319,3.174
0.117,-0.947,-0.395,12.512,1.404,2.563
0.112,-0.951,-0.403,12.451,0.671,1.343
0.108,-0.96,-0.408,10.864,0.549,0.61
0.108,-0.97,-0.409,8.85,0.61,0.0
0.101,-0.969,-0.411,7.324,0.61,0.244
0.099,-0.965,-0.412,5.432,0.122,0.854
0.091,-0.972,-0.417,2.869,-0.061,1.648
0.112,-0.959,-0.406,0.244,0.61,1.77
0.118,-0.953,-0.405,-2.563,1.343,1.709
0.109,-0.95,-0.408,-4.395,1.587,1.16
0.101,-0.944,-0.405,-6.165,1.648,0.977
0.096,-0.936,-0.4,-8.301,0.977,1.404
0.087,-0.948,-0.396,-9.155,-1.343,2.747
0.084,-0.954,-0.383,-9.399,-3.296,5.005
0.092,-0.952,-0.37,-8.545,-4.395,7.568
0.104,-0.953,-0.367,-6.47,-5.249,9.399
0.117,-0.958,-0.377,-4.15,-5.554,10.376
0.126,-0.957,-0.393,-2.869,-5.249,10.193
0.134,-0.948,-0.398,-3.54,-4.883,8.728
0.14,-0.937,-0.393,-5.554,-3.784,6.165
0.137,-0.931,-0.389,-11.047,-0.854,-0.366
0.12,-0.945,-0.383,-13.489,0.183,-2.747
0.114,-0.955,-0.37,-15.381,0.977,-3.662
0.106,-0.961,-0.356,-14.954,0.61,-3.601
0.102,-0.958,-0.348,-13.062,0.305,-3.113
0.102,-0.954,-0.346,-10.559,-0.061,-2.319
0.106,-0.951,-0.346,-7.812,-0.244,-1.343
0.107,-0.947,-0.357,-5.798,-0.488,-0.732
0.047,2.074,-0.724,80.627,-9.766,-7.629
0.016,2.223,-0.494,111.023,34.119,-3.235
0.333,1.904,0.195,103.21,89.661,7.996
0.905,1.387,1.031,66.406,113.098,17.761
1.27,0.862,1.378,61.829,68.909,25.391
1.333,0.242,0.99,114.38,-14.099,35.889
1.291,-0.342,0.297,165.955,-79.407,36.133
1.187,-0.483,-0.309,176.453,-106.628,13.367
0.74,-0.341,-0.6,159.363,-97.412,-6.531
0.422,-0.197,-0.4,108.459,-55.298,-6.226
0.238,-0.234,-0.12,40.344,-20.63,8.911
0.008,-0.459,-0.073,-3.479,-15.442,22.644
-0.183,-0.637,-0.163,-29.175,-15.503,24.841
-0.341,-0.854,-0.582,-50.049,-8.057,19.775
-0.708,-0.773,-1.051,-62.561,16.907,-5.432
-0.764,-0.317,-0.721,-62.927,78.979,-38.94
0.053,0.045,0.114,-38.94,153.931,-59.021
1.415,0.222,0.917,-12.39,200.012,-80.078
2.882,0.414,1.518,18.433,190.186,-99.121
3.241,0.033,1.288,73.547,91.797,-91.919
2.369,-0.917,0.279,98.083,-62.012,-66.65
1.441,-1.922,-0.438,21.729,-143.433,-68.787
0.639,-2.348,-0.981,-74.28,-120.605,-126.892
1.086,-2.186,-0.679,-84.045,-52.673,-205.627
3.156,-0.782,-0.24,-13.123,32.898,-278.32
4.0,2.541,-0.313,35.461,124.878,-322.266
4.0,4.0,2.666,-24.902,132.202,-288.33
0.95,3.131,2.251,-60.791,-82.825,-216.37
-1.142,0.652,0.248,76.233,-310.852,-134.521
-1.675,-1.778,-2.803,96.069,-292.786,-130.554
-1.629,-2.228,-2.826,-33.875,-80.078,-237.366
0.246,-3.155,-1.413,-32.654,171.57,-269.348
2.82,-3.47,2.297,-3.052,286.926,-297.241
2.654,-2.19,1.702,-50.903,-22.095,-294.312
0.253,-0.693,0.23,-96.008,-87.463,-249.023
-0.229,-0.629,0.254,-84.229,-98.145,-215.759
-0.441,-0.186,-0.134,-54.81,-104.553,-219.055
-0.484,0.108,-0.543,-18.677,-85.266,-224.182
-0.28,0.301,-0.529,-7.629,-33.691,-221.558
0.183,0.17,-0.375,-25.818,20.325,-206.421
0.641,-0.08,0.006,-55.847,55.603,-189.392
0.916,-0.335,0.42,-61.523,55.542,-172.913
0.899,-0.647,0.614,-25.452,22.4,-153.137
0.63,-0.832,0.538,20.874,-24.841,-140.32
0.315,-0.644,0.414,43.457,-57.678,-140.137
-0.007,-0.417,0.266,42.419,-72.876,-144.043
-0.331,-0.403,0.078,28.015,-83.252,-144.104
-0.688,-0.441,-0.24,16.418,-95.337,-144.775
-1.027,-0.695,-0.756,34.79,-98.511,-145.142
-1.148,-0.947,-0.932,67.81,-65.857,-152.527
-0.875,-1.153,-0.657,103.943,-4.15,-165.466
-0.421,-1.242,-0.118,138.0,54.26,-182.861
0.089,-1.297,0.312,162.964,84.717,-198.608
0.484,-1.478,0.548,175.903,82.886,-200.806
0.56,-1.891,0.384,174.255,47.791,-183.167
0.312,-2.487,0.067,150.146,-2.625,-148.437
0.062,-3.197,0.093,126.343,-31.86,-105.713
-0.049,-3.678,0.309,124.39,-30.945,-68.787
-0.04,-3.635,0.266,148.071,-28.381,-62.012
-0.069,-3.286,-0.113,192.017,-46.692,-81.36
-0.158,-2.781,-0.471,222.29,-62.256,-100.83
-0.284,-2.269,-0.566,220.276,-52.49,-102.051
-0.399,-1.918,-0.49,189.636,-23.071,-82.092
-0.373,-1.637,-0.327,137.207,5.92,-52.246
-0.267,-1.395,-0.103,84.961,24.048,-26.917
-0.16,-1.26,0.068,55.42,27.405,-9.949
-0.132,-1.222,0.146,40.71,19.226,-3.845
-0.185,-1.198,0.103,28.931,6.897,-7.202
-0.236,-1.139,-0.044,24.109,-1.648,-17.578
-0.245,-1.036,-0.229,25.33,-4.272,-31.494
-0.238,-0.902,-0.339,22.644,1.099,-46.875
-0.194,-0.736,-0.376,13.794,11.963,-58.899
-0.131,-0.558,-0.377,0.916,21.606,-65.369
-0.107,-0.414,-0.381,-12.939,24.048,-64.453
-0.138,-0.333,-0.371,-25.574,17.212,-54.26
-0.232,-0.345,-0.346,-32.837,6.775,-39.001
-0.323,-0.486,-0.343,-28.259,-2.258,-22.583
-0.382,-0.696,-0.37,-11.475,-6.409,-8.911
-0.388,-0.822,-0.405,15.015,-2.38,-4.761
-0.322,-0.823,-0.429,45.044,9.46,-10.498
-0.218,-0.765,-0.436,65.491,21.973,-17.944
-0.129,-0.744,-0.43,68.359,31.006,-19.836
-0.077,-0.822,-0.399,53.894,35.339,-14.16
-0.068,-0.972,-0.326,26.55,34.485,-0.916
-0.054,-1.146,-0.245,-2.747,27.344,18.311
-0.044,-1.336,-0.187,-18.494,14.282,41.626
-0.092,-1.554,-0.176,-11.292,-2.808,63.293
-0.221,-1.702,-0.239,10.864,-18.982,73.547
-0.313,-1.664,-0.34,30.396,-24.658,68.604
-0.303,-1.491,-0.422,34.607,-17.09,55.359
-0.213,-1.278,-0.45,24.414,-2.136,40.833
-0.081,-1.069,-0.401,9.949,14.343,27.466
0.054,-0.918,-0.339,-0.183,26.55,16.174
0.143,-0.8,-0.304,-9.644,30.762,9.827
0.189,-0.752,-0.259,-18.127,31.433,8.606
0.197,-0.759,-0.195,-25.452,32.288,10.559
0.167,-0.781,-0.161,-32.715,32.043,14.282
0.1,-0.801,-0.184,-40.039,30.029,18.25
0.02,-0.828,-0.244,-45.776,28.564,20.935
-0.032,-0.85,-0.293,-46.143,30.09,22.766
-0.037,-0.904,-0.296,-38.391,34.18,25.94
0.008,-1.005,-0.258,-21.79,38.696,28.748
0.113,-1.112,-0.207,-3.418,41.443,27.039
0.242,-1.167,-0.177,10.193,39.612,19.592
0.344,-1.146,-0.169,16.357,35.645,8.545
0.401,-1.063,-0.162,16.479,33.081,-1.831
0.425,-0.95,-0.162,11.902,31.982,-8.911
0.414,-0.794,-0.179,4.761,31.006,-11.414
0.394,-0.682,-0.225,-1.038,27.71,-6.958
0.359,-0.67,-0.279,-4.517,20.569,3.845
0.287,-0.788,-0.324,0.183,13.062,16.968
0.201,-0.997,-0.357,13.0,6.042,27.283
0.138,-1.13,-0.353,26.428,-0.366,31.677
0.079,-1.13,-0.297,41.321,-4.211,29.297
0.012,-1.093,-0.219,54.138,-3.784,23.254
-0.025,-1.103,-0.164,56.641,0.061,17.517
0.002,-1.099,-0.166,48.279,5.066,12.024
0.095,-1.006,-0.206,39.124,7.629,6.592
0.198,-0.866,-0.279,37.231,6.775,1.526
-0.379,-1.133,-0.573,28.809,-22.217,-2.991
-0.326,-1.118,-0.535,8.118,-3.601,-5.493
-0.181,-1.116,-0.494,-24.841,7.568,-5.615
-0.03,-1.14,-0.445,-55.664,9.155,-6.042
0.127,-1.18,-0.384,-69.885,6.592,-7.568
0.277,-1.148,-0.296,-67.383,4.028,-10.376
0.424,-1.01,-0.246,-55.481,2.319,-13.855
0.561,-0.801,-0.267,-44.006,-0.183,-17.883
0.687,-0.593,-0.345,-34.912,-2.014,-21.423
0.751,-0.428,-0.422,-31.067,-2.319,-23.193
0.732,-0.347,-0.406,-30.701,1.282,-21.545
0.63,-0.394,-0.274,-30.823,6.348,-14.221
0.484,-0.545,-0.161,-24.109,4.883,-3.601
0.332,-0.737,-0.19,-6.47,-5.981,7.385
0.171,-0.96,-0.278,14.893,-17.578,16.602
0.046,-1.144,-0.331,28.442,-20.63,21.24
0.003,-1.246,-0.331,30.945,-16.113,22.095
0.037,-1.276,-0.312,21.79,-10.193,19.775
0.125,-1.255,-0.293,4.639,-6.592,14.404
0.215,-1.198,-0.3,-12.024,-5.371,7.69
0.265,-1.145,-0.331,-21.301,-5.615,1.709
0.27,-1.101,-0.339,-22.034,-4.639,-2.136
0.258,-1.055,-0.319,-15.869,-1.404,-4.028
0.247,-0.996,-0.288,-8.057,2.502,-5.371
0.235,-0.926,-0.279,-0.793,4.578,-5.249
0.21,-0.857,-0.299,5.31,4.822,-4.761
0.175,-0.793,-0.318,10.376,5.249,-4.639
0.148,-0.744,-0.339,12.085,6.226,-4.883
0.131,-0.724,-0.366,10.742,6.958,-4.578
0.112,-0.736,-0.397,8.972,8.179,-4.761
0.098,-0.781,-0.432,9.399,10.376,-5.066
0.091,-0.847,-0.446,9.46,13.916,-4.578
0.098,-0.924,-0.412,7.385,18.188,-4.272
0.117,-1.002,-0.351,2.441,21.606,-3.967
0.142,-1.059,-0.284,-3.784,21.912,-4.089
0.159,-1.08,-0.251,-8.24,18.738,-4.517
0.161,-1.07,-0.263,-8.423,12.878,-5.188
0.129,-1.051,-0.309,-4.761,5.981,-6.104
0.071,-1.027,-0.374,0.916,0.061,-7.507
0.01,-0.998,-0.439,5.188,-1.892,-8.728
-0.03,-0.981,-0.471,6.836,0.061,-8.545
-0.038,-0.984,-0.454,5.31,4.456,-7.019
-0.02,-0.984,-0.398,1.526,8.362,-5.066
0.006,-0.958,-0.322,-5.249,10.01,-3.662
0.039,-0.923,-0.277,-11.047,8.24,-2.563
0.059,-0.897,-0.28,-13.611,4.211,-0.671
0.065,-0.892,-0.322,-12.146,-0.427,1.038
0.068,-0.915,-0.37,-8.423,-2.686,2.502
0.077,-0.945,-0.405,-4.272,-2.808,3.54
0.086,-0.976,-0.408,-0.244,-1.099,4.089
0.092,-1.004,-0.385,2.808,1.526,4.15
0.108,-1.014,-0.357,4.333,4.089,3.845
0.13,-1.002,-0.328,2.502,5.981,3.052
0.154,-0.979,-0.288,-2.197,6.409,2.38
0.177,-0.962,-0.254,-6.348,5.371,2.075
0.185,-0.956,-0.246,-7.385,2.563,1.709
0.177,-0.962,-0.26,-6.592,-0.549,1.16
0.172,-0.966,-0.283,-5.432,-2.319,0.61
0.174,-0.943,-0.303,-5.615,-2.625,0.183
0.181,-0.896,-0.35,-7.08,-2.319,0.0
0.18,-0.871,-0.412,-6.958,-1.648,0.916
0.164,-0.882,-0.448,-4.517,-0.305,2.136
0.153,-0.916,-0.454,-2.502,2.38,3.479
0.151,-0.957,-0.425,-4.028,4.7,5.066
0.155,-1.004,-0.367,-7.874,5.981,6.47
0.164,-1.048,-0.3,-11.414,5.859,7.446
0.179,-1.065,-0.244,-11.719,4.028,7.507
0.185,-1.038,-0.212,-7.996,1.099,6.348
0.183,-0.995,-0.214,-2.991,-1.892,4.7
0.182,-0.955,-0.236,0.549,-4.395,2.93
0.176,-0.928,-0.274,0.916,-5.798,0.916
0.16,-0.924,-0.321,-0.122,-6.104,-0.977
0.144,-0.936,-0.357,-2.014,-4.578,-2.319
0.135,-0.943,-0.365,-4.028,-1.038,-3.052
0.138,-0.94,-0.348,-6.836,3.296,-3.418
0.147,-0.937,-0.317,-10.01,6.47,-3.479
0.156,-0.941,-0.288,-11.963,7.324,-3.357
0.161,-0.953,-0.271,-11.597,6.104,-3.235
0.158,-0.965,-0.266,-9.949,4.089,-3.052
0.148,-0.967,-0.287,-7.751,1.77,-3.052
0.131,-0.969,-0.351,-5.249,0.366,-2.991
0.097,-0.988,-0.398,-2.991,0.854,-2.93
0.078,-1.014,-0.411,-1.16,3.601,-2.991
0.086,-1.036,-0.391,-2.136,7.202,-2.991
0.105,-1.037,-0.352,-5.737,9.949,-2.747
0.13,-1.017,-0.304,-10.315,10.498,-2.625
0.154,-0.99,-0.264,-12.939,8.667,-2.563
0.164,-0.964,-0.245,-12.695,4.944,-2.136
0.167,-0.946,-0.252,-9.705,0.61,-1.526
0.163,-0.932,-0.277,-6.47,-3.174,-0.549
0.141,-0.922,-0.305,-4.7,-6.287,0.061
0.113,-0.919,-0.359,-4.272,-8.362,0.977
0.073,-0.939,-0.418,-5.188,-9.277,2.869
0.04,-0.987,-0.455,-6.775,-8.545,5.31
0.045,-1.042,-0.436,-8.606,-4.578,7.08
0.078,-1.086,-0.349,-10.254,1.404,8.728
0.115,-1.081,-0.255,-11.658,4.944,8.85
0.143,-1.033,-0.199,-11.414,5.005,7.263
0.161,-0.981,-0.192,-9.644,2.625,5.005
0.17,-0.947,-0.235,-7.568,-0.305,2.93
0.165,-0.941,-0.311,-7.385,-2.38,1.221
0.153,-0.969,-0.386,-9.766,-3.601,0.488
0.137,-1.007,-0.427,-15.808,-3.784,1.16
0.118,-1.051,-0.421,-24.292,-2.563,2.93
0.113,-1.096,-0.366,-31.067,0.366,4.517
0.126,-1.114,-0.28,-32.898,4.517,5.127
0.144,-1.085,-0.191,-30.945,7.202,3.418
0.161,-1.033,-0.131,-28.625,7.568,0.488
0.178,-0.96,-0.12,-26.489,5.31,-2.625
0.183,-0.896,-0.137,-24.902,2.258,-4.395
0.185,-0.846,-0.176,-22.522,-0.671,-5.676
0.181,-0.807,-0.208,-20.203,-2.686,-6.592
0.172,-0.771,-0.245,-16.296,-3.662,-6.165
0.152,-0.755,-0.278,-10.681,-3.723,-4.761
0.127,-0.768,-0.289,-4.578,-2.747,-2.808
0.117,-0.805,-0.279,0.366,-1.038,-0.122
0.124,-0.857,-0.254,4.883,0.305,2.502
0.133,-0.917,-0.232,8.728,0.427,4.456
0.145,-0.98,-0.231,12.085,-0.488,5.554
0.924,3.491,-1.913,8.85,-76.904,-43.823
1.441,4.0,-2.651,50.537,0.488,-14.465
3.719,4.0,-1.427,-28.137,217.041,54.138
4.0,4.0,4.0,-52.979,402.1,198.914
4.0,3.583,3.403,308.105,42.114,496.094
3.224,-4.0,-4.0,617.615,-406.128,712.708
1.877,-3.976,-1.714,390.503,-277.71,401.611
1.026,-3.982,-0.914,560.669,-240.051,245.422
-0.174,-2.966,-1.487,661.499,-328.613,213.928
-0.37,-0.725,-3.219,562.256,-348.083,194.275
-0.385,-0.12,-2.666,466.98,-232.727,266.235
0.508,0.567,-1.058,296.265,-90.698,346.985
2.705,1.8,1.546,166.992,-14.893,392.09
3.698,2.059,1.523,182.922,-60.547,451.782
2.015,0.534,-0.241,257.69,-188.171,483.582
0.918,0.687,0.133,285.4,-198.914,446.838
1.234,-0.086,-0.773,325.623,-193.97,449.89
1.877,-1.086,-0.469,310.425,-186.035,440.369
2.249,-2.011,1.018,269.104,-206.726,426.941
1.161,-1.399,1.644,180.969,-261.841,399.658
0.405,-0.915,2.123,82.153,-285.583,368.774
-0.102,-0.212,1.959,29.846,-298.523,310.12
-0.657,0.643,1.426,36.743,-323.914,236.572
-0.797,1.209,1.27,68.115,-326.782,179.993
-0.715,0.96,1.191,108.887,-307.556,145.325
-0.724,0.204,1.021,148.193,-286.011,124.023
-0.945,-0.513,0.745,153.564,-268.921,116.943
-1.338,-0.539,0.588,110.291,-251.038,113.77
-1.289,0.142,0.914,41.199,-216.248,106.812
-1.141,0.516,1.089,-20.142,-174.255,98.694
-1.18,0.656,1.054,-41.809,-136.658,83.496
-1.212,0.662,1.133,-28.748,-109.375,67.81
-1.121,0.281,1.12,-22.034,-90.088,52.856
-1.122,-0.159,1.044,-26.001,-73.792,34.729
-1.098,-0.175,0.934,-32.532,-65.186,23.132
-1.107,0.018,0.924,-39.49,-59.387,19.958
-1.214,0.419,0.837,-52.002,-56.274,23.193
-1.235,0.781,0.768,-68.42,-52.002,34.18
-1.231,1.111,0.689,-73.792,-37.476,39.856
-1.098,1.333,0.623,-63.843,-21.484,41.138
-0.946,1.285,0.572,-54.688,-1.526,41.504
-0.745,0.987,0.531,-51.819,19.653,39.246
-0.617,0.492,0.461,-43.03,34.973,36.072
-0.501,0.107,0.458,-29.846,43.884,30.579
-0.458,-0.184,0.402,-23.865,46.814,24.719
-0.37,-0.401,0.414,-27.039,47.852,16.113
-0.26,-0.509,0.46,-40.344,47.791,0.366
-0.162,-0.445,0.488,-60.791,47.302,-21.729
-0.081,-0.299,0.555,-75.439,44.861,-47.913
-0.113,0.058,0.576,-78.796,37.292,-74.463
-0.266,0.01,0.429,-73.853,31.067,-85.266
-0.181,0.227,0.509,-67.505,36.072,-96.619
-0.197,0.439,0.472,-64.392,38.391,-103.149
-0.09,0.52,0.495,-63.293,40.894,-95.459
-0.078,0.563,0.521,-69.824,40.955,-85.144
-0.109,0.524,0.539,-80.078,36.865,-76.294
-0.2,0.346,0.433,-85.754,29.114,-74.89
-0.467,0.413,0.527,-94.421,28.87,-86.426
-0.604,0.491,0.547,-103.333,28.076,-89.539
-0.657,0.61,0.559,-111.816,24.231,-81.238
-0.679,0.732,0.524,-120.85,19.165,-69.031
-0.664,0.84,0.517,-130.127,17.578,-54.26
-0.578,0.882,0.504,-137.268,21.301,-43.518
-0.499,1.068,0.505,-140.808,26.245,-42.236
-0.36,1.326,0.549,-140.198,27.344,-42.48
-0.374,1.492,0.562,-137.756,23.621,-42.053
-0.324,1.658,0.69,-131.104,19.287,-39.246
-0.54,1.315,0.547,-115.662,13.672,-31.25
-0.495,1.386,0.829,-99.304,31.494,-37.659
-0.374,1.237,0.856,-97.351,41.626,-31.982
-0.379,1.116,0.811,-74.646,40.649,-31.677
-0.342,1.092,0.812,-50.72,30.762,-32.166
-0.391,1.038,0.632,-31.799,3.357,-27.649
-0.523,1.109,0.444,-16.418,-11.719,-29.114
-0.608,1.201,0.31,-16.052,-8.301,-25.696
-0.489,1.128,0.296,-21.729,7.935,-17.7
-0.233,1.059,0.379,-23.56,21.912,-18.311
-0.099,1.045,0.581,-22.339,26.672,-21.545
-0.007,0.884,0.745,-17.029,25.452,-19.043
0.105,0.7,0.812,-14.771,20.691,-19.897
0.086,0.672,0.818,-20.691,7.629,-27.222
-0.05,0.708,0.609,-21.851,-10.315,-31.311
-0.174,0.693,0.464,-10.742,-14.709,-31.982
-0.252,0.655,0.332,-1.038,-11.047,-37.598
-0.308,0.664,0.235,-0.793,-1.16,-51.025
-0.325,0.74,0.251,-8.606,15.137,-66.345
-0.263,0.872,0.421,-20.325,28.381,-76.904
-0.192,0.934,0.537,-27.954,25.513,-76.965
-0.182,0.927,0.508,-23.499,12.329,-72.815
-0.075,0.889,0.497,-15.32,5.493,-67.078
0.0,0.843,0.468,-10.132,-1.221,-65.552
0.007,0.841,0.408,-2.319,-6.531,-71.838
-0.003,0.877,0.372,5.493,-10.071,-79.712
-0.071,0.873,0.365,8.545,-12.39,-83.496
-0.153,0.789,0.372,1.77,-8.484,-83.984
-0.157,0.71,0.338,-8.972,2.441,-84.717
-0.091,0.699,0.312,-13.062,14.954,-89.539
-0.056,0.771,0.273,-10.986,20.752,-97.717
-0.072,0.923,0.243,-5.127,22.278,-105.042
-0.073,1.098,0.275,-0.916,24.719,-108.459
-0.088,1.21,0.344,-6.348,27.039,-105.835
-0.082,1.217,0.461,-22.034,29.358,-98.694
-0.057,1.108,0.588,-41.016,29.907,-88.867
0.015,0.916,0.649,-54.81,26.794,-77.942
0.109,0.782,0.654,-58.838,23.621,-72.876
0.206,0.775,0.6,-54.565,21.851,-72.876
0.39,0.849,0.566,-42.236,21.301,-73.547
0.493,0.913,0.516,-24.78,16.907,-73.181
0.581,0.873,0.502,-7.446,6.104,-70.679
0.575,0.885,0.36,4.944,-8.911,-69.946
0.53,0.861,0.304,7.69,-12.756,-66.65
0.481,0.87,0.305,2.991,-11.353,-61.279
0.426,0.88,0.335,-2.075,-10.925,-51.147
0.385,0.862,0.385,-4.761,-10.254,-37.537
0.365,0.829,0.431,-3.845,-10.315,-25.696
0.368,0.798,0.443,1.282,-9.888,-17.273
0.375,0.791,0.409,10.193,-8.362,-15.198
0.388,0.782,0.336,15.32,-7.629,-15.991
0.377,0.758,0.261,9.216,-8.118,-16.113
0.189,1.541,0.296,-13.855,-10.437,33.813
0.168,1.384,0.324,-8.789,-7.935,35.4
0.134,1.188,0.343,-2.136,-11.353,36.743
0.114,1.002,0.344,5.859,-18.188,36.438
0.097,0.839,0.316,12.39,-24.963,33.264
0.07,0.749,0.266,15.32,-30.64,27.466
0.036,0.719,0.212,16.541,-34.058,20.569
-0.012,0.732,0.167,17.029,-34.18,13.733
-0.074,0.788,0.128,18.86,-29.846,6.592
-0.129,0.825,0.102,20.691,-21.301,1.282
-0.162,0.87,0.133,16.785,-9.888,-2.014
-0.162,0.893,0.205,8.911,3.113,-3.967
-0.131,0.91,0.305,0.427,13.794,-6.165
-0.062,0.886,0.385,-2.93,19.592,-9.094
-0.028,0.887,0.436,-5.005,17.029,-11.719
0.001,0.846,0.429,-1.038,8.484,-13.245
-0.02,0.816,0.379,7.751,-0.977,-15.137
-0.051,0.778,0.333,15.747,-8.728,-15.32
-0.088,0.75,0.316,24.841,-11.353,-16.113
-0.107,0.74,0.327,31.311,-12.268,-16.357
-0.092,0.72,0.335,37.537,-10.742,-16.052
-0.056,0.724,0.331,41.992,-7.446,-17.944
-0.029,0.768,0.319,44.434,-3.357,-23.01
0.011,0.843,0.3,46.936,1.465,-28.381
0.057,0.921,0.297,47.607,6.409,-32.837
0.121,0.98,0.333,44.189,11.719,-36.194
0.166,1.025,0.411,35.889,15.686,-38.94
0.189,1.042,0.489,28.687,14.526,-38.574
0.217,1.004,0.523,27.1,9.949,-34.851
0.22,0.967,0.519,28.198,3.601,-31.006
0.182,0.951,0.506,28.503,-2.441,-27.893
0.154,0.929,0.482,29.541,-6.958,-24.597
0.157,0.9,0.43,29.541,-8.24,-21.851
0.161,0.88,0.391,24.292,-7.446,-20.447
0.143,0.895,0.413,15.503,-4.883,-19.104
0.146,0.886,0.458,8.301,-0.916,-16.418
0.176,0.859,0.495,3.113,3.235,-13.306
0.206,0.821,0.511,-1.77,4.028,-10.864
0.213,0.791,0.506,-5.615,1.343,-8.606
0.187,0.765,0.492,-4.822,-3.296,-7.507
0.161,0.728,0.445,-0.61,-7.202,-6.287
0.143,0.714,0.39,2.502,-8.484,-5.92
0.135,0.721,0.349,3.174,-7.751,-5.981
0.134,0.746,0.334,2.075,-5.249,-5.981
0.137,0.782,0.351,0.122,-0.854,-5.737
0.146,0.82,0.397,-1.587,3.54,-4.822
0.162,0.848,0.443,-3.601,6.348,-3.418
0.172,0.862,0.469,-4.7,7.141,-2.136
0.18,0.862,0.477,-5.249,6.104,-1.038
0.179,0.854,0.473,-6.836,4.517,-0.427
0.177,0.839,0.464,-8.789,2.93,-0.244
0.172,0.823,0.448,-10.254,0.977,-0.183
0.166,0.81,0.43,-11.108,-0.671,-0.305
0.163,0.803,0.413,-12.146,-1.587,0.0
0.164,0.81,0.398,-13.0,-1.465,0.427
0.167,0.827,0.389,-13.611,0.061,1.587
0.169,0.846,0.386,-14.404,1.404,2.991
0.169,0.861,0.393,-14.954,2.563,4.761
0.164,0.86,0.406,-16.113,2.625,6.226
0.157,0.846,0.419,-17.395,2.258,6.836
0.149,0.819,0.424,-17.883,1.831,6.653
0.149,0.801,0.416,-18.921,1.648,5.981
0.149,0.794,0.401,-19.47,1.343,4.761
0.152,0.796,0.376,-19.714,0.366,3.601
0.15,0.813,0.353,-19.226,-0.183,2.991
0.15,0.846,0.337,-17.7,-0.183,2.808
0.149,0.891,0.326,-17.212,0.488,1.892
0.154,0.949,0.326,-18.433,2.136,1.16
0.158,0.996,0.334,-19.043,3.967,0.488
0.166,1.019,0.345,-18.372,6.287,0.671
0.173,1.015,0.357,-16.907,8.301,1.282
0.173,0.989,0.365,-15.503,9.46,1.831
0.173,0.953,0.375,-13.977,9.216,2.502
0.165,0.904,0.387,-13.428,7.568,2.991
0.155,0.848,0.397,-13.245,5.737,2.808
0.151,0.807,0.396,-14.282,3.601,1.831
0.154,0.788,0.383,-14.587,0.977,0.427
0.167,0.783,0.348,-11.963,-3.601,-0.244
0.175,0.795,0.311,-7.08,-8.606,-0.366
0.16,0.84,0.28,-2.502,-12.451,-0.854
0.13,0.888,0.274,0.0,-13.123,-1.099
0.11,0.915,0.299,-1.831,-9.155,-0.854
0.109,0.931,0.337,-7.446,-3.174,-1.038
0.129,0.943,0.364,-12.329,2.075,-1.526
0.15,0.95,0.369,-13.184,3.845,-2.075
0.166,0.947,0.361,-11.597,2.563,-2.686
0.171,0.935,0.351,-9.705,0.305,-3.418
0.17,0.92,0.34,-8.362,-1.77,-4.15
0.164,0.907,0.332,-6.958,-3.54,-4.822
0.151,0.905,0.324,-5.676,-5.127,-5.127
0.141,0.912,0.314,-4.456,-5.92,-5.188
0.144,0.93,0.308,-3.113,-5.554,-5.554
0.149,0.945,0.308,-2.197,-4.578,-5.981
0.154,0.948,0.31,-1.099,-3.296,-6.409
0.159,0.941,0.311,0.671,-2.441,-6.836
0.162,0.931,0.303,2.502,-1.831,-7.263
0.17,0.921,0.3,3.967,-0.977,-7.507
0.185,0.913,0.307,5.737,-0.671,-7.568
0.192,0.913,0.326,7.69,-1.77,-7.507
0.187,0.911,0.346,10.254,-3.54,-7.141
0.179,0.897,0.366,11.841,-5.371,-6.104
0.172,0.867,0.381,11.047,-5.798,-4.822
0.17,0.842,0.386,7.629,-4.944,-3.723
0.173,0.823,0.384,3.784,-3.784,-3.296
0.178,0.811,0.373,0.488,-3.052,-3.113
0.186,0.811,0.361,-2.136,-2.808,-3.113
0.192,0.815,0.348,-3.601,-3.296,-3.357
0.192,0.816,0.341,-3.54,-4.639,-3.479
0.19,0.831,0.34,-2.808,-6.042,-3.357
0.183,0.828,0.34,-1.099,-6.958,-3.174
0.181,0.833,0.336,0.244,-7.263,-2.991
0.181,0.849,0.338,-0.366,-6.592,-2.441
0.179,0.858,0.349,-3.479,-4.822,-1.465
0.172,0.859,0.364,-7.019,-2.747,-1.16
0.165,0.874,0.362,-10.742,-1.526,-1.526
0.161,0.89,0.349,-13.672,-0.916,-1.831
0.159,0.903,0.327,-16.113,-0.61,-2.319
0.165,0.919,0.308,-16.785,0.061,-2.869
0.179,0.938,0.291,-15.32,0.305,-3.113
0.394,-1.377,0.211,56.396,-22.278,-9.888
0.147,-1.197,-0.783,33.813,-59.937,-48.767
-0.247,-0.597,-1.21,9.155,-28.748,-81.482
0.214,-0.57,-0.584,-13.672,70.19,-83.679
1.245,-0.099,0.141,-38.208,152.832,-88.013
2.079,0.325,0.666,-63.538,152.405,-87.891
2.171,-0.217,0.836,-66.895,69.214,-76.66
1.914,-1.123,0.328,-52.917,-37.17,-85.144
2.158,-1.439,-0.544,-70.435,-72.571,-142.395
3.262,-0.201,-0.615,-72.998,-3.601,-211.67
4.0,0.885,0.008,-29.114,69.397,-232.056
4.0,1.037,1.201,-28.809,49.133,-237.61
1.379,0.897,1.294,-57.8,-92.346,-219.238
-0.043,-0.479,-0.171,-29.114,-248.596,-204.956
-0.813,-1.941,-2.093,-34.546,-204.468,-227.051
-0.226,-2.454,-1.776,-96.924,14.282,-300.171
1.557,-2.604,-0.261,-96.985,223.45,-334.229
2.887,-2.963,1.758,-65.43,299.133,-341.37
2.533,-2.357,2.319,-22.095,177.124,-352.234
0.973,-1.045,0.814,-15.442,-29.724,-360.168
-0.592,-0.497,0.261,-15.381,-125.549,-332.153
-1.603,-0.523,0.007,8.667,-142.273,-294.189
-1.746,-0.483,-0.411,36.255,-117.615,-281.494
-1.329,-0.416,-0.695,64.209,-69.153,-288.635
-0.777,-0.257,-0.718,66.895,-15.076,-290.466
-0.198,-0.261,-0.672,27.71,31.738,-267.456
1.156,-1.544,0.697,-9.521,79.59,-184.875
1.206,-1.62,0.958,38.025,37.17,-173.645
0.675,-0.983,0.709,64.514,-29.541,-181.702
0.256,-0.311,0.289,50.659,-72.266,-192.993
-0.031,0.069,-0.041,20.569,-84.839,-194.153
-0.467,0.034,-0.285,5.981,-79.346,-175.171
-0.778,-0.363,-0.442,11.658,-68.298,-149.109
-0.929,-0.966,-0.477,41.565,-52.368,-129.395
-1.034,-1.672,-0.385,97.595,-32.227,-118.225
-0.953,-2.58,-0.076,162.598,-0.122,-107.788
-0.656,-3.49,0.226,210.51,24.536,-103.271
-0.578,-4.0,0.332,251.648,4.639,-108.459
-0.702,-4.0,0.198,272.156,-40.161,-111.816
-0.86,-3.858,-0.239,246.887,-72.998,-108.276
-1.029,-3.258,-0.893,237.732,-92.712,-103.333
-1.203,-2.452,-1.307,234.497,-88.135,-93.445
-1.253,-1.701,-1.158,198.12,-48.95,-72.571
-1.035,-1.234,-0.748,141.235,2.625,-50.903
-0.713,-1.015,-0.364,81.421,45.044,-43.945
-0.335,-0.879,-0.1,34.18,69.153,-52.979
0.036,-0.795,0.041,11.475,74.402,-61.707
0.269,-0.751,0.02,8.606,64.575,-63.354
0.276,-0.657,-0.094,10.376,47.18,-59.021
0.15,-0.547,-0.158,4.395,29.968,-50.11
-0.07,-0.501,-0.126,-10.498,10.437,-33.142
-0.382,-0.529,-0.245,-19.531,-10.193,-12.512
-0.672,-0.677,-0.447,-12.329,-15.625,1.77
-0.788,-0.788,-0.503,4.028,0.122,2.197
-0.654,-0.772,-0.513,18.494,23.926,-9.888
-0.36,-0.67,-0.447,23.315,46.021,-27.039
-0.066,-0.577,-0.297,21.79,59.57,-40.039
0.109,-0.511,-0.26,16.846,58.655,-44.128
0.082,-0.463,-0.291,7.263,46.448,-38.33
-0.07,-0.459,-0.263,-7.141,31.067,-24.292
-0.245,-0.577,-0.266,-22.217,13.855,-4.639
-0.415,-0.819,-0.297,-32.654,-0.488,14.343
-0.556,-1.001,-0.367,-32.654,-7.874,25.635
-0.586,-1.155,-0.472,-18.555,-5.615,30.457
-0.453,-1.302,-0.44,-2.625,6.104,30.09
-0.241,-1.424,-0.22,6.836,13.367,25.024
-0.096,-1.324,-0.208,12.39,4.456,20.081
-0.118,-1.235,-0.279,12.573,-3.662,22.705
-0.235,-1.159,-0.165,3.235,-1.343,27.771
-0.263,-1.086,-0.132,-6.226,-2.319,31.433
-0.302,-0.857,-0.192,-11.292,-8.85,31.677
-0.243,-0.924,-0.333,-10.559,-12.451,33.569
-0.233,-0.833,-0.384,-13.428,-7.69,27.954
-0.213,-0.816,-0.278,-10.376,-1.892,28.442
-0.224,-0.694,-0.242,-8.362,-1.343,31.067
-0.284,-0.553,-0.247,-3.113,-1.648,39.917
-0.226,-0.698,-0.283,2.869,1.892,56.885
-0.217,-0.78,-0.377,0.0,5.127,64.575
-0.197,-0.853,-0.334,1.709,9.888,71.045
-0.113,-0.943,-0.309,8.179,10.925,74.768
-0.05,-0.949,-0.272,17.639,9.338,71.838
0.004,-0.937,-0.235,29.175,7.874,68.726
0.05,-0.927,-0.193,40.039,5.493,66.956
0.073,-0.868,-0.164,46.326,1.587,67.993
0.097,-0.854,-0.292,49.683,-0.854,73.547
0.071,-0.956,-0.424,48.157,7.446,80.688
0.072,-1.094,-0.353,39.978,23.621,85.754
0.208,-1.197,-0.215,30.273,30.823,86.67
0.389,-1.247,-0.12,27.039,25.391,80.872
0.367,-1.195,-0.098,27.771,8.545,68.97
0.277,-1.106,-0.145,30.823,-8.545,56.519
0.258,-1.028,-0.219,44.312,-19.104,47.546
0.316,-0.915,-0.046,62.622,-25.574,36.011
0.326,-0.916,-0.464,86.914,-43.213,28.503
0.24,-1.029,-0.596,116.882,-37.048,25.94
0.357,-1.197,-0.725,130.554,-31.189,21.057
0.33,-1.249,-0.837,122.253,-36.011,8.484
0.018,-1.128,-0.88,95.337,-41.199,-3.906
-0.232,-1.007,-0.851,59.57,-44.678,-5.676
-0.482,-1.047,-0.857,29.968,-40.1,-1.77
-0.623,-1.066,-0.824,11.78,-12.085,-4.883
-0.564,-1.093,-0.626,-5.92,33.936,-13.184
-0.316,-1.06,-0.337,-20.996,73.364,-18.616
0.004,-1.125,0.073,-19.409,85.51,-20.996
0.264,-0.909,0.223,-5.737,60.73,-27.771
0.432,-0.732,0.16,17.395,19.836,-27.893
0.499,-0.633,0.038,36.804,-18.25,-19.043
0.516,-0.674,-0.224,43.274,-52.917,-6.714
0.389,-0.795,-0.572,44.189,-72.083,5.127
0.354,-0.837,-0.855,36.804,-70.923,18.86
0.285,-1.209,-0.98,30.945,-61.401,35.278
-0.133,-1.325,-0.912,20.081,-48.401,34.851
-0.145,-1.157,-0.645,0.366,-33.02,26.611
-0.168,-1.137,-0.665,-10.498,-16.968,27.954
-0.244,-1.34,-0.581,-19.348,6.47,24.414
-0.027,-1.26,-0.355,-31.067,29.175,6.653
0.267,-1.196,-0.172,-38.879,46.082,-7.568
0.488,-1.042,-0.119,-35.95,47.546,-20.203
0.561,-0.763,-0.147,-29.48,37.659,-30.579
-0.235,-1.698,-0.774,15.991,-6.348,-10.559
0.05,-1.364,-0.546,19.775,15.93,-25.146
0.099,-1.082,-0.484,22.4,16.785,-24.353
0.177,-0.99,-0.47,23.865,7.568,-15.808
0.15,-1.016,-0.43,14.221,2.93,-7.141
0.15,-0.912,-0.364,5.493,-2.136,-4.944
0.166,-0.969,-0.42,3.479,-6.897,0.732
0.172,-0.985,-0.376,-0.61,-3.967,0.977
0.123,-0.931,-0.292,-6.897,-0.549,-1.709
0.12,-0.903,-0.306,-6.714,-0.183,-1.709
0.159,-0.945,-0.36,-5.31,1.282,-2.136
0.195,-0.894,-0.342,-9.644,5.859,-5.859
0.179,-0.887,-0.329,-13.367,7.751,-8.911
0.17,-0.839,-0.315,-12.39,7.263,-10.437
0.142,-0.891,-0.371,-6.958,4.944,-9.949
0.134,-0.895,-0.435,-1.77,5.188,-10.803
0.14,-0.964,-0.478,0.427,4.944,-10.62
0.074,-0.977,-0.509,-1.892,3.662,-9.949
0.05,-0.981,-0.484,-5.127,2.258,-8.057
0.007,-0.988,-0.453,-6.165,-0.732,-5.554
-0.01,-0.999,-0.427,-2.136,-6.775,-3.479
-0.057,-0.945,-0.353,1.038,-8.179,-4.578
-0.09,-0.92,-0.352,1.465,-9.888,-6.653
-0.129,-0.896,-0.388,0.61,-10.376,-9.033
-0.129,-0.855,-0.439,0.122,-9.827,-11.841
-0.135,-0.828,-0.484,-0.549,-8.24,-12.146
-0.126,-0.811,-0.512,1.465,-5.676,-11.658
-0.06,-0.895,-0.469,5.066,-1.709,-7.69
0.027,-0.937,-0.361,2.93,2.075,-0.671
-0.011,-0.973,-0.363,3.784,-0.61,4.578
-0.018,-0.979,-0.382,9.399,-2.441,8.179
-0.004,-0.983,-0.4,14.16,-2.502,10.559
0.016,-0.975,-0.414,16.541,-2.136,11.78
0.026,-0.98,-0.423,17.029,-1.221,11.414
0.046,-0.974,-0.423,14.954,0.793,9.705
0.11,-0.934,-0.412,11.78,3.113,8.179
0.118,-0.929,-0.423,11.169,2.625,8.484
0.11,-0.927,-0.454,11.292,0.732,8.667
0.115,-0.921,-0.453,9.888,-0.549,9.033
0.093,-0.933,-0.443,8.423,-2.38,9.644
0.075,-0.939,-0.437,7.507,-3.723,9.583
0.052,-0.951,-0.433,6.836,-4.456,8.972
0.05,-0.939,-0.425,5.92,-4.333,7.568
0.047,-0.936,-0.419,5.127,-3.296,5.798
0.036,-0.937,-0.425,4.456,-1.77,3.723
0.1,-0.906,-0.406,2.747,0.793,1.526
0.163,-0.896,-0.404,2.991,2.014,1.587
0.17,-0.913,-0.434,6.897,1.038,2.747
0.17,-0.919,-0.439,9.827,0.488,2.686
0.104,-0.959,-0.465,11.719,0.061,1.343
0.094,-0.952,-0.459,10.071,1.221,-1.77
0.086,-0.948,-0.459,8.057,1.953,-3.296
0.086,-0.947,-0.462,5.676,2.502,-4.272
0.083,-0.946,-0.464,2.93,2.869,-5.127
0.081,-0.943,-0.46,0.122,3.174,-5.92
0.078,-0.941,-0.455,-2.502,3.601,-6.653
0.073,-0.942,-0.448,-4.761,3.845,-7.263
0.069,-0.939,-0.439,-5.981,4.028,-7.874
0.064,-0.936,-0.435,-6.836,4.15,-8.057
0.055,-0.933,-0.436,-6.653,4.089,-7.812
0.041,-0.935,-0.44,-6.47,3.479,-7.446
0.024,-0.898,-0.427,-5.432,2.319,-6.531
0.082,-0.974,-0.489,-6.409,0.977,-2.38
0.06,-0.961,-0.462,-10.681,1.526,-3.54
0.037,-0.934,-0.43,-14.771,1.099,-3.54
0.036,-0.921,-0.405,-15.747,0.122,-1.465
0.048,-0.924,-0.403,-14.648,-1.282,1.221
0.053,-0.923,-0.393,-13.062,-1.831,2.808
0.056,-0.921,-0.383,-10.986,-1.953,3.235
0.065,-0.927,-0.392,-7.751,-2.075,3.418
0.065,-0.926,-0.389,-5.371,-1.465,2.93
0.057,-0.915,-0.377,-2.93,-1.038,2.014
0.059,-0.917,-0.379,0.183,-1.099,1.953
0.063,-0.926,-0.388,3.479,-0.916,2.014
0.065,-0.93,-0.395,6.104,-0.61,1.587
0.065,-0.933,-0.404,8.24,-0.244,0.854
0.065,-0.935,-0.412,9.338,0.122,0.366
0.068,-0.941,-0.419,10.132,0.61,-0.244
0.066,-0.943,-0.425,9.644,0.977,-0.854
0.063,-0.943,-0.428,9.583,0.854,-1.587
0.06,-0.94,-0.432,9.521,0.916,-1.831
0.058,-0.941,-0.437,8.484,0.916,-1.648
0.054,-0.939,-0.438,7.019,0.61,-1.16
0.05,-0.936,-0.436,5.798,0.061,-0.122
0.05,-0.937,-0.436,4.517,-0.793,1.099
0.055,-0.941,-0.439,3.479,-1.404,2.563
0.058,-0.942,-0.437,2.563,-1.77,3.357
0.06,-0.939,-0.433,1.465,-1.892,3.967
0.064,-0.938,-0.43,0.671,-2.014,4.089
0.067,-0.935,-0.426,0.427,-1.892,3.906
0.067,-0.93,-0.424,0.793,-1.587,3.54
0.068,-0.929,-0.422,0.916,-1.16,2.93
0.071,-0.927,-0.419,1.953,-0.977,1.892
0.07,-0.927,-0.419,2.625,-0.671,1.221
0.069,-0.926,-0.418,3.357,-0.061,0.305
0.067,-0.927,-0.42,4.395,0.061,-0.427
0.066,-0.933,-0.426,5.371,0.183,-1.16
0.064,-0.934,-0.433,6.042,0.427,-1.465
0.063,-0.935,-0.434,5.859,0.61,-1.648
0.062,-0.936,-0.436,5.371,0.61,-1.526
0.061,-0.937,-0.439,5.005,0.61,-1.404
0.06,-0.937,-0.446,4.333,0.244,-1.16
0.059,-0.942,-0.46,3.235,0.061,-0.977
0.056,-0.952,-0.477,0.366,-0.305,-0.183
0.055,-0.959,-0.484,-4.15,-1.343,0.732
0.055,-0.957,-0.468,-9.521,-2.075,2.258
0.058,-0.951,-0.438,-12.817,-2.869,3.723
0.062,-0.936,-0.41,-13.489,-3.479,4.761
0.064,-0.922,-0.392,-11.169,-3.479,4.822
0.062,-0.911,-0.387,-7.446,-3.052,4.333
0.071,-0.9,-0.384,-4.089,-1.831,3.418
0.071,-0.904,-0.395,-1.587,-0.61,2.197
0.031,-0.942,-0.411,-0.061,0.671,0.671
0.078,-0.916,-0.402,-1.038,2.686,-1.221
0.094,-0.908,-0.401,-0.061,3.296,-1.343
0.068,-0.943,-0.43,4.395,1.099,-1.526
0.065,-0.938,-0.426,5.066,0.854,-1.892
0.063,-0.938,-0.428,4.639,1.038,-2.075
0.063,-0.939,-0.432,4.15,0.977,-2.014
1.155,4.0,0.161,-123.291,124.512,-39.185
1.638,4.0,2.659,-83.008,175.354,40.588
4.0,4.0,3.537,101.807,95.337,272.888
3.828,2.455,-1.241,528.992,-142.395,641.663
2.748,-2.946,-3.902,654.236,-300.476,618.225
2.267,-4.0,-1.246,599.304,-227.112,357.605
2.594,-3.221,-1.2,626.099,-174.011,260.62
2.219,-2.058,-1.558,579.956,-193.909,266.846
2.577,-1.844,-0.156,359.558,-178.04,324.219
2.077,-0.864,0.349,182.251,-202.393,368.408
1.244,0.438,0.031,123.779,-234.619,419.25
1.628,0.42,1.299,113.953,-204.712,447.449
1.322,0.447,1.51,112.61,-214.6,427.063
1.063,0.396,1.495,113.586,-243.652,398.254
0.6,-0.063,1.337,112.671,-267.517,377.075
-0.155,-0.26,1.324,87.219,-289.978,334.961
-0.958,-0.034,0.912,82.153,-315.125,275.94
-1.361,-0.083,0.599,117.249,-332.52,217.773
-1.379,-0.508,0.535,136.841,-327.942,179.077
-1.422,-0.744,0.484,113.403,-314.941,157.288
-1.485,-0.879,0.525,56.335,-295.288,141.296
-1.662,-0.171,0.695,-26.978,-271.606,132.202
-1.597,0.94,0.859,-94.238,-241.272,135.803
-1.531,1.808,0.899,-117.188,-203.247,142.151
-1.498,2.229,0.911,-103.638,-164.734,143.127
-1.413,2.351,0.8,-64.697,-132.812,131.165
-1.352,2.055,0.762,-15.137,-109.314,107.849
-1.304,1.464,0.79,30.273,-90.576,85.51
-1.183,0.623,0.845,55.176,-73.792,73.364
-1.185,-0.101,0.841,55.786,-65.002,68.787
-1.503,-0.413,0.62,36.926,-68.542,69.397
-1.618,-0.265,0.467,-1.77,-64.819,60.73
-1.575,0.142,0.334,-45.532,-53.345,45.532
-1.505,0.515,0.217,-70.251,-36.621,37.109
-1.304,0.869,0.257,-77.881,-17.639,33.081
-1.086,1.002,0.261,-79.407,-2.014,28.381
-0.866,0.901,0.248,-73.914,16.724,19.348
-0.593,0.792,0.331,-63.599,33.02,11.23
-0.414,0.727,0.319,-54.443,38.818,7.751
-0.379,0.679,0.277,-46.204,33.325,6.775
-0.405,0.674,0.329,-38.513,24.475,8.057
-0.453,0.837,0.289,-34.546,18.25,10.62
-0.432,0.905,0.279,-30.212,19.104,19.409
-0.427,0.69,0.25,-24.597,25.635,27.1
-0.293,0.461,0.329,-21.301,35.522,20.63
-0.327,0.248,0.244,-20.63,39.368,7.141
-0.357,0.015,0.245,-22.766,44.006,-4.395
-0.356,-0.211,0.295,-29.602,49.133,-14.404
-0.442,-0.401,0.344,-39.063,46.875,-28.503
-0.637,-0.462,0.294,-49.011,41.504,-48.706
-0.706,-0.304,0.317,-52.612,37.476,-73.792
-0.716,-0.11,0.328,-42.908,28.442,-96.619
-0.687,0.235,0.235,-32.104,21.057,-116.211
-0.58,0.507,0.196,-36.194,30.273,-122.559
-0.457,0.64,0.347,-57.434,52.856,-116.638
-0.371,0.607,0.531,-87.769,73.059,-105.286
-0.334,0.491,0.699,-118.53,83.984,-95.154
-0.418,0.434,0.817,-141.174,81.726,-89.661
-0.558,0.296,0.74,-152.832,67.932,-88.318
-0.602,0.419,0.665,-156.616,50.964,-94.971
-0.535,0.63,0.654,-148.56,25.085,-97.107
-0.575,0.775,0.551,-125.671,-8.85,-97.656
-0.617,0.867,0.411,-107.239,-24.658,-103.76
-0.512,1.108,0.397,-105.042,-13.489,-115.295
-0.348,1.359,0.451,-111.694,4.578,-119.141
-0.126,1.41,0.517,-115.479,19.592,-116.211
0.072,1.366,0.575,-113.159,26.917,-116.272
0.229,1.264,0.608,-102.417,25.696,-118.042
0.279,1.236,0.592,-84.717,13.977,-118.408
0.202,1.239,0.491,-60.608,-4.456,-111.328
0.062,1.265,0.347,-36.865,-20.752,-103.943
-0.152,1.386,0.302,-27.893,-24.719,-97.595
-0.408,1.52,0.424,-34.729,-16.479,-82.947
-0.411,1.49,0.628,-46.875,-7.629,-56.519
-0.294,1.236,0.691,-54.626,-13.794,-29.419
-0.194,0.926,0.613,-46.997,-25.696,-20.325
-0.107,0.812,0.429,-39.734,-38.391,-26.794
