aX,aY,aZ,gX,gY,gZ
0.590,-1.248,0.785,-9.460,-2.441,-37.048
0.690,-1.599,-0.081,42.786,-64.514,-46.692
0.332,-1.234,-0.722,55.664,-63.293,-78.918
-0.206,-0.269,-0.734,26.733,-2.808,-111.511
-0.306,0.489,-0.554,-6.897,65.430,-117.493
-0.225,0.717,-0.074,-37.354,108.521,-106.812
0.010,0.153,0.637,-55.420,113.098,-90.759
0.301,-0.907,0.710,-44.739,77.942,-75.134
0.435,-1.386,-0.188,-29.419,27.161,-91.492
0.860,-1.134,-0.985,-35.095,41.809,-141.724
1.361,-0.418,-0.505,-45.593,129.517,-189.697
2.271,-0.415,0.314,-28.625,189.941,-204.529
3.182,-1.739,1.574,-4.700,182.251,-213.257
3.311,-1.637,1.284,3.479,95.093,-258.118
2.469,-2.442,0.274,17.639,5.188,-275.146
1.921,-2.024,-0.921,-30.334,-5.066,-329.163
1.557,-1.755,-1.177,-50.720,55.237,-358.582
1.399,-1.896,-1.012,-61.829,123.352,-353.149
1.208,-2.032,-0.427,-80.627,170.288,-340.820
1.003,-2.360,0.346,-55.603,179.077,-313.232
0.579,-2.347,0.719,-24.353,144.775,-295.837
0.193,-2.263,0.654,-5.737,97.229,-283.630
-0.060,-2.052,0.510,-12.878,65.369,-282.776
-0.237,-1.815,0.118,-33.142,44.495,-285.645
-0.234,-1.680,-0.124,-53.833,31.494,-279.175
-0.226,-1.544,-0.357,-66.833,18.921,-269.531
-0.151,-1.390,-0.485,-64.148,10.803,-259.399
0.041,-1.319,-0.608,-46.265,15.015,-242.981
0.274,-1.246,-0.518,-25.635,32.471,-224.365
0.461,-1.131,-0.321,-10.193,54.199,-209.167
0.604,-1.066,-0.081,1.953,70.618,-194.092
0.788,-0.920,0.230,7.568,72.632,-182.800
0.795,-0.802,0.376,9.094,51.636,-169.495
0.617,-0.757,0.336,15.381,11.292,-148.499
0.359,-0.900,0.133,17.883,-35.889,-121.216
-0.027,-1.118,-0.165,9.644,-78.308,-98.389
-0.429,-1.415,-0.527,5.615,-101.318,-80.994
-0.681,-1.757,-0.822,33.386,-95.032,-65.857
-0.755,-1.988,-0.892,93.872,-63.354,-58.716
-0.709,-2.100,-0.724,166.687,-25.330,-58.899
-0.635,-2.158,-0.439,226.562,1.770,-62.012
-0.426,-2.134,-0.086,257.019,10.376,-68.115
-0.484,-2.018,0.104,264.404,-0.916,-72.083
-0.735,-1.744,0.178,253.784,-12.451,-76.965
-0.810,-1.463,0.154,218.933,-18.127,-88.806
-0.738,-1.053,0.061,160.278,-23.132,-105.591
-0.526,-0.780,-0.041,115.723,-31.250,-113.464
-0.394,-0.692,-0.309,88.745,-38.452,-111.450
-0.292,-0.488,-0.500,61.035,-36.194,-112.793
-0.257,-0.447,-0.616,32.532,-28.381,-102.417
-0.102,-0.626,-0.879,-2.258,-23.743,-79.773
0.042,-0.682,-0.938,-52.307,-7.019,-68.542
0.102,-0.780,-0.737,-81.726,10.193,-57.495
0.039,-1.009,-0.420,-62.439,20.203,-34.668
-0.109,-1.194,-0.123,-7.568,31.189,-13.367
-0.184,-1.250,0.122,62.622,47.852,-5.615
-0.216,-1.075,0.293,95.703,47.852,-16.113
-0.238,-0.905,0.369,78.552,24.170,-30.334
-0.266,-0.852,0.164,31.250,-12.878,-36.133
-0.310,-0.925,-0.205,-26.794,-48.645,-30.701
-0.407,-1.062,-0.544,-75.256,-66.345,-19.775
-0.538,-1.230,-0.752,-95.520,-57.251,-7.874
-0.604,-1.411,-0.748,-78.735,-27.100,1.465
-0.528,-1.492,-0.543,-42.847,11.230,0.000
-0.338,-1.375,-0.402,-11.169,37.720,-13.733
-0.127,-1.172,-0.378,5.859,54.260,-28.259
0.065,-1.004,-0.363,14.709,62.561,-35.339
0.189,-0.878,-0.302,24.170,57.434,-35.522
0.188,-0.776,-0.219,34.485,40.039,-30.884
0.114,-0.725,-0.146,39.307,19.958,-20.081
0.029,-0.731,-0.159,37.659,-0.183,-7.141
-0.055,-0.804,-0.234,32.288,-17.395,4.944
-0.140,-0.904,-0.307,24.475,-30.334,15.747
-0.230,-0.997,-0.381,15.686,-39.185,23.621
-0.300,-1.056,-0.426,7.568,-42.847,26.428
-0.268,-1.067,-0.415,3.235,-40.039,22.888
-0.158,-1.107,-0.368,4.028,-34.912,16.602
-0.047,-1.187,-0.298,7.019,-23.376,10.925
0.045,-1.190,-0.233,8.118,-2.197,5.005
0.099,-1.028,-0.107,2.625,18.127,-1.831
0.053,-0.733,-0.147,-10.925,15.076,-6.348
0.042,-0.543,-0.212,-26.062,-2.380,-3.357
-0.033,-0.375,-0.301,-32.104,-21.301,7.812
-0.161,-0.351,-0.395,-14.954,-36.194,29.724
-0.256,-0.507,-0.444,11.414,-38.757,49.805
-0.353,-0.642,-0.479,28.870,-31.860,57.495
-0.352,-0.839,-0.481,33.142,-22.583,58.472
-0.249,-1.036,-0.410,23.682,-16.541,50.232
-0.104,-1.221,-0.283,12.512,-14.343,37.354
-0.011,-1.385,-0.172,8.667,-17.334,24.170
0.002,-1.480,-0.138,9.277,-23.804,11.292
-0.055,-1.438,-0.185,9.399,-30.945,-0.305
-0.110,-1.389,-0.360,8.850,-35.950,-7.019
-0.176,-1.326,-0.575,2.136,-33.997,-9.216
-0.217,-1.231,-0.679,-13.245,-21.362,-5.493
-0.224,-1.057,-0.573,-24.292,-4.150,-0.061
-0.231,-0.910,-0.401,-16.968,7.507,6.897
-0.231,-0.772,-0.324,-2.625,10.925,9.277
-0.187,-0.651,-0.331,4.639,14.221,7.080
-0.124,-0.565,-0.367,5.310,17.090,2.197
-0.054,-0.535,-0.397,2.808,17.761,-1.587
0.022,-0.567,-0.428,-5.005,15.259,-1.526
0.097,-0.631,-0.437,-17.517,10.559,0.244
0.136,-0.714,-0.428,-28.931,4.395,4.944
0.124,-0.781,-0.387,-32.288,-3.784,12.207
0.075,-0.851,-0.337,-20.081,-8.545,18.188
-0.008,-0.919,-0.278,1.892,-9.094,21.606
-0.096,-0.951,-0.242,20.996,-5.737,22.583
-0.113,-0.948,-0.248,32.410,0.305,21.729
-0.064,-0.959,-0.284,34.668,7.690,22.461
0.014,-1.004,-0.375,30.396,9.583,27.710
0.104,-1.145,-0.462,24.048,3.601,38.574
0.094,-1.228,-0.508,19.775,-6.897,50.537
-0.033,-1.213,-0.411,26.550,-9.644,58.594
-0.141,-1.130,-0.228,44.434,-1.709,58.594
-0.135,-0.997,-0.077,52.673,8.667,49.133
-0.044,-0.894,-0.016,43.640,12.085,36.804
0.055,-0.868,-0.084,23.315,5.005,27.771
0.071,-0.909,-0.253,-3.662,-14.160,22.339

-0.243,-1.329,-0.654,-81.360,-41.382,27.527
-0.259,-1.372,-0.606,-62.256,-20.752,28.992
-0.181,-1.343,-0.553,-39.429,4.150,24.109
-0.032,-1.191,-0.499,-26.733,25.879,17.578
0.088,-0.970,-0.400,-21.362,36.133,14.221
0.147,-0.797,-0.299,-10.681,36.011,15.930
0.166,-0.680,-0.228,1.831,27.466,19.348
0.144,-0.610,-0.218,8.423,15.198,22.522
0.095,-0.580,-0.244,10.925,4.456,26.184
0.049,-0.607,-0.296,11.414,-1.221,30.334
0.016,-0.662,-0.341,8.606,-2.197,34.058
0.004,-0.777,-0.388,4.456,-2.502,38.269
0.009,-0.952,-0.445,-1.709,-1.465,42.175
0.027,-1.131,-0.438,-14.099,-0.061,45.105
0.032,-1.342,-0.309,-29.602,0.061,47.058
-0.003,-1.499,-0.278,-43.457,-3.601,43.579
0.007,-1.483,-0.241,-52.490,-0.732,35.950
0.043,-1.425,-0.215,-42.358,8.240,33.264
0.082,-1.352,-0.194,-23.193,15.930,29.968
0.128,-1.315,-0.204,-8.301,20.935,26.428
0.167,-1.257,-0.249,-0.916,23.254,22.461
0.185,-1.136,-0.268,-3.967,22.461,19.958
0.144,-1.003,-0.257,-16.357,17.639,20.935
0.108,-0.882,-0.204,-31.860,9.155,23.010
0.091,-0.816,-0.164,-40.527,0.610,25.879
0.098,-0.782,-0.133,-40.588,-5.798,27.832
0.117,-0.775,-0.128,-32.349,-12.634,28.503
0.144,-0.780,-0.144,-20.447,-16.846,26.978
0.166,-0.780,-0.185,-8.240,-16.968,22.766
0.183,-0.763,-0.251,-0.183,-15.381,17.639
0.205,-0.762,-0.346,0.000,-11.902,14.160
0.238,-0.773,-0.438,-8.667,-8.789,13.000
0.268,-0.820,-0.470,-21.545,-6.592,14.771
0.298,-0.918,-0.435,-29.114,-5.371,19.104
0.317,-1.009,-0.350,-31.921,-6.836,25.330
0.299,-1.050,-0.232,-27.039,-10.681,30.884
0.248,-1.068,-0.142,-10.620,-15.869,34.668
0.190,-1.095,-0.153,10.559,-19.958,36.377
0.124,-1.111,-0.238,24.231,-22.400,34.851
0.053,-1.107,-0.328,27.832,-21.057,31.677
0.004,-1.077,-0.342,26.123,-15.076,29.175
0.021,-1.060,-0.298,21.057,-6.592,28.992
0.072,-1.084,-0.243,13.184,-1.831,33.691
0.094,-1.129,-0.220,5.615,-2.991,41.809
0.081,-1.158,-0.197,5.249,-6.897,49.622
0.062,-1.191,-0.153,13.733,-9.338,54.993
0.035,-1.249,-0.108,27.527,-12.329,55.481
0.014,-1.282,-0.110,37.537,-18.311,48.157
0.013,-1.256,-0.153,36.438,-25.757,35.156
0.031,-1.191,-0.225,21.973,-31.006,19.409
0.088,-1.122,-0.297,-4.639,-31.433,2.930
0.178,-1.058,-0.381,-38.330,-30.151,-11.780
0.262,-1.010,-0.441,-70.129,-29.846,-22.888
0.294,-0.922,-0.476,-88.928,-35.278,-28.076
0.290,-0.849,-0.521,-89.294,-42.236,-22.827
0.285,-0.839,-0.615,-67.749,-44.312,-7.996
0.298,-0.801,-0.601,-29.053,-31.738,10.742
0.357,-0.788,-0.480,27.832,-7.507,26.794
0.426,-0.721,-0.244,87.341,20.447,31.677
0.389,-0.602,0.048,137.024,39.185,31.189
0.289,-0.530,0.317,164.124,51.208,28.625
0.220,-0.442,0.445,144.348,53.345,22.888
0.163,-0.380,0.427,91.675,41.687,17.822
0.094,-0.311,0.262,45.532,17.395,12.268
0.099,-0.312,0.210,12.512,-7.141,7.385
0.204,-0.410,0.027,-6.226,-38.452,1.465
0.339,-0.577,-0.251,-17.456,-72.449,-8.057
0.449,-0.767,-0.562,-30.151,-93.140,-20.020
0.467,-0.872,-0.739,-48.096,-86.914,-30.579
0.496,-1.029,-0.767,-52.795,-56.519,-29.907
0.675,-1.202,-0.613,-43.579,-11.902,-19.104
0.903,-1.264,-0.239,-26.794,25.818,-12.878
0.961,-1.187,0.022,6.653,37.231,-10.864
0.891,-1.003,0.093,35.034,29.297,-9.338
0.817,-0.676,0.013,34.790,17.456,-7.812
0.616,-0.508,-0.198,42.175,6.104,0.427
0.462,-0.424,-0.336,65.308,3.662,3.174
0.547,-0.207,-0.339,81.848,1.892,1.953
0.622,-0.216,-0.457,107.544,-8.667,12.024
0.531,-0.695,-0.328,119.202,-16.846,18.127
0.485,-1.318,-0.316,91.980,-27.466,13.062
0.394,-2.154,-0.242,65.796,-28.503,4.761
0.110,-2.513,-0.345,51.880,-19.287,-16.479
0.138,-2.082,-0.297,59.326,13.550,-32.349
0.239,-1.375,-0.182,63.965,46.387,-26.245
0.368,-1.128,-0.172,63.232,52.979,-4.089
0.461,-1.155,-0.245,50.903,31.006,10.986
0.519,-1.035,-0.405,21.667,-1.221,11.841
0.484,-0.859,-0.504,-7.812,-24.719,5.310
0.402,-0.700,-0.498,-25.208,-33.875,-2.869
0.262,-0.642,-0.374,-20.691,-30.762,-5.432
0.189,-0.578,-0.230,-5.859,-21.423,-2.747
0.167,-0.545,-0.087,0.000,-11.780,3.418
0.157,-0.589,-0.013,-6.592,-9.766,11.414
0.069,-0.834,-0.105,-11.536,-18.066,19.653
-0.074,-1.196,-0.358,-7.874,-25.879,22.705
-0.179,-1.389,-0.662,0.122,-19.470,18.494
-0.227,-1.500,-0.681,12.512,6.348,12.146
-0.130,-1.252,-0.490,11.047,36.072,2.136
-0.023,-1.098,-0.260,4.578,53.101,0.183
0.064,-1.048,-0.150,-5.371,48.706,-5.737
0.152,-0.908,-0.188,-11.169,33.936,-13.123
0.185,-0.800,-0.349,-11.475,20.996,-16.724
0.280,-0.805,-0.319,-7.996,16.968,-17.151
0.305,-0.761,-0.467,-21.484,6.348,-21.240
0.283,-0.739,-0.566,-29.175,1.099,-23.743
0.173,-0.719,-0.760,-37.231,1.709,-22.949
0.113,-0.773,-0.684,-27.954,13.611,-16.602
0.038,-0.841,-0.525,-23.315,19.836,-12.756
-0.095,-0.901,-0.542,-19.592,24.963,-10.742
0.005,-0.924,-0.491,-2.747,39.612,-6.531
0.087,-0.969,-0.241,8.789,53.467,-0.305
0.031,-0.951,-0.270,8.728,44.922,-2.197
0.135,-0.967,-0.405,18.188,37.964,-1.282
-0.074,-1.390,-0.473,28.320,32.166,2.319
0.156,-0.917,-0.604,-0.488,21.973,-10.254
0.056,-1.173,-0.452,-20.325,18.555,-9.399
0.029,-1.266,-0.509,-34.912,19.226,-10.803
0.183,-0.939,-0.487,-47.119,29.236,-12.756

